Folder: Report-results/4. Notched tensile specimen

File: 0.5fx-t.txt
	0	    0
   0.20000E-02   31.7627
   0.40000E-02   63.5254
   0.60000E-02   95.2882
   0.80000E-02   127.051
   0.10000E-01   158.814
   0.12000E-01   190.576
   0.14000E-01   222.339
   0.16000E-01   254.102
   0.18000E-01   285.864
   0.20000E-01   317.627
   0.22000E-01   349.390
   0.24000E-01   381.153
   0.26000E-01   412.915
   0.28000E-01   444.678
   0.30000E-01   476.441
   0.32000E-01   508.204
   0.34000E-01   539.966
   0.36000E-01   571.729
   0.38000E-01   603.492
   0.40000E-01   635.254
   0.42000E-01   667.017
   0.44000E-01   698.780
   0.46000E-01   730.543
   0.48000E-01   762.305
   0.50000E-01   794.068
   0.52000E-01   825.831
   0.54000E-01   857.593
   0.56000E-01   889.356
   0.58000E-01   921.119
   0.60000E-01   952.882
   0.62000E-01   984.644
   0.64000E-01   1016.41
   0.66000E-01   1048.17
   0.68000E-01   1079.93
   0.70000E-01   1111.70
   0.72000E-01   1143.46
   0.74000E-01   1175.22
   0.76000E-01   1206.98
   0.78000E-01   1238.75
   0.80000E-01   1270.51
   0.82000E-01   1302.27
   0.84000E-01   1334.03
   0.86000E-01   1365.80
   0.88000E-01   1397.56
   0.90000E-01   1429.32
   0.92000E-01   1461.09
   0.94000E-01   1492.85
   0.96000E-01   1524.61
   0.98000E-01   1556.37
   0.10000       1588.14
   0.10200       1619.90
   0.10400       1651.66
   0.10600       1683.42
   0.10800       1715.19
   0.11000       1746.95
   0.11200       1778.71
   0.11400       1810.48
   0.11600       1842.24
   0.11800       1874.00
   0.12000       1905.76
   0.12200       1937.53
   0.12400       1969.29
   0.12600       2001.05
   0.12800       2032.81
   0.13000       2064.58
   0.13200       2096.34
   0.13400       2128.10
   0.13600       2159.87
   0.13800       2191.63
   0.14000       2223.39
   0.14200       2255.15
   0.14400       2286.92
   0.14600       2318.68
   0.14800       2350.44
   0.15000       2382.20
   0.15200       2413.97
   0.15400       2445.73
   0.15600       2477.49
   0.15800       2509.26
   0.16000       2541.02
   0.16200       2572.78
   0.16400       2604.54
   0.16600       2636.28
   0.16800       2667.89
   0.17000       2699.43
   0.17200       2730.70
   0.17400       2761.98
   0.17600       2793.26
   0.17800       2824.54
   0.18000       2855.82
   0.18200       2887.10
   0.18400       2918.38
   0.18600       2949.66
   0.18800       2980.94
   0.19000       3012.22
   0.19200       3043.50
   0.19400       3074.77
   0.19600       3106.05
   0.19800       3137.33
   0.20000       3168.61
   0.20200       3199.89
   0.20400       3231.16
   0.20600       3262.44
   0.20800       3293.72
   0.21000       3325.00
   0.21200       3356.28
   0.21400       3387.55
   0.21600       3418.83
   0.21800       3450.11
   0.22000       3481.39
   0.22200       3512.66
   0.22400       3543.89
   0.22600       3574.99
   0.22800       3606.10
   0.23000       3637.20
   0.23200       3668.20
   0.23400       3698.98
   0.23600       3729.77
   0.23800       3760.56
   0.24000       3791.35
   0.24200       3822.14
   0.24400       3852.93
   0.24600       3883.72
   0.24800       3914.51
   0.25000       3945.30
   0.25200       3976.08
   0.25400       4006.81
   0.25600       4037.54
   0.25800       4068.28
   0.26000       4099.01
   0.26200       4129.74
   0.26400       4160.48
   0.26600       4190.89
   0.26800       4220.82
   0.27000       4250.74
   0.27200       4280.67
   0.27400       4310.60
   0.27600       4340.53
   0.27800       4370.45
   0.28000       4400.38
   0.28200       4430.31
   0.28400       4460.24
   0.28600       4490.17
   0.28800       4520.09
   0.29000       4550.02
   0.29200       4579.95
   0.29400       4609.69
   0.29600       4639.36
   0.29800       4668.63
   0.30000       4697.86
   0.30200       4727.09
   0.30400       4756.32
   0.30600       4785.55
   0.30800       4814.78
   0.31000       4843.98
   0.31200       4873.19
   0.31400       4902.34
   0.31600       4931.34
   0.31800       4959.47
   0.32000       4987.52
   0.32200       5015.59
   0.32400       5043.66
   0.32600       5071.73
   0.32800       5099.81
   0.33000       5127.89
   0.33200       5155.97
   0.33400       5184.05
   0.33600       5211.85
   0.33800       5239.21
   0.34000       5266.38
   0.34200       5293.56
   0.34400       5320.75
   0.34600       5347.94
   0.34800       5375.13
   0.35000       5402.25
   0.35200       5428.44
   0.35400       5454.06
   0.35600       5479.76
   0.35800       5505.47
   0.36000       5531.19
   0.36200       5556.92
   0.36400       5582.66
   0.36600       5608.01
   0.36800       5632.60
   0.37000       5657.20
   0.37200       5681.83
   0.37400       5706.47
   0.37600       5731.12
   0.37800       5754.38
   0.38000       5777.09
   0.38200       5799.89
   0.38400       5822.72
   0.38600       5845.57
   0.38800       5868.24
   0.39000       5889.81
   0.39200       5911.29
   0.39400       5932.82
   0.39600       5954.39
   0.39800       5974.53
   0.40000       5993.70
   0.40200       6013.03
   0.40400       6032.42
   0.40600       6051.63
   0.40800       6069.36
   0.41000       6087.16
   0.41200       6105.06
   0.41400       6121.57
   0.41600       6136.57
   0.41800       6151.84
   0.42000       6167.16
   0.42200       6180.87
   0.42400       6194.32
   0.42600       6207.97
   0.42800       6218.63
   0.43000       6229.03
   0.43200       6239.69
   0.43400       6248.40
   0.43600       6256.93
   0.43800       6264.40
   0.44000       6269.13
   0.44200       6274.43
   0.44400       6277.58
   0.44600       6280.52
   0.44800       6280.71
   0.45000       6279.50
   0.45200       6277.30
   0.45400       6273.73
   0.45600       6267.21
   0.45800       6259.26
   0.46000       6248.93
   0.46200       6237.45
   0.46400       6221.49
   0.46600       6204.08
   0.46800       6184.46
   0.47000       6160.12
   0.47200       6133.08
   0.47400       6102.02
   0.47600       6066.68
   0.47800       6027.25
   0.48000       5981.27
   0.48200       5929.88
   0.48400       5870.04
   0.48600       5800.68
   0.48800       5714.71
   0.49000       5585.37
   0.49111       5489.30