Folder: Report-results/4. Notched tensile specimen/Matrix/h = 0.5mm

File: e11-1.txt
	0		0
   0.10000E-02  0.848181E-004
   0.20000E-02  0.169636E-003
   0.30000E-02  0.254454E-003
   0.40000E-02  0.339273E-003
   0.50000E-02  0.424091E-003
   0.60000E-02  0.508909E-003
   0.70000E-02  0.593727E-003
   0.80000E-02  0.678545E-003
   0.90000E-02  0.763363E-003
   0.10000E-01  0.848181E-003
   0.11000E-01  0.933000E-003
   0.12000E-01  0.101782E-002
   0.13000E-01  0.110264E-002
   0.14000E-01  0.118745E-002
   0.15000E-01  0.127227E-002
   0.16000E-01  0.135709E-002
   0.17000E-01  0.144191E-002
   0.18000E-01  0.152673E-002
   0.19000E-01  0.161154E-002
   0.20000E-01  0.169636E-002
   0.21000E-01  0.178118E-002
   0.22000E-01  0.186600E-002
   0.23000E-01  0.195082E-002
   0.24000E-01  0.203564E-002
   0.25000E-01  0.212045E-002
   0.26000E-01  0.220527E-002
   0.27000E-01  0.229009E-002
   0.28000E-01  0.237491E-002
   0.29000E-01  0.245973E-002
   0.30000E-01  0.254454E-002
   0.31000E-01  0.262936E-002
   0.32000E-01  0.271418E-002
   0.33000E-01  0.279900E-002
   0.34000E-01  0.288382E-002
   0.35000E-01  0.296863E-002
   0.36000E-01  0.305345E-002
   0.37000E-01  0.313827E-002
   0.38000E-01  0.322309E-002
   0.39000E-01  0.330791E-002
   0.40000E-01  0.339273E-002
   0.41000E-01  0.347754E-002
   0.42000E-01  0.356236E-002
   0.43000E-01  0.364718E-002
   0.44000E-01  0.373200E-002
   0.45000E-01  0.381682E-002
   0.46000E-01  0.390163E-002
   0.47000E-01  0.398645E-002
   0.48000E-01  0.407127E-002
   0.49000E-01  0.415609E-002
   0.50000E-01  0.424091E-002
   0.51000E-01  0.432573E-002
   0.52000E-01  0.441054E-002
   0.53000E-01  0.449536E-002
   0.54000E-01  0.458018E-002
   0.55000E-01  0.466500E-002
   0.56000E-01  0.474982E-002
   0.57000E-01  0.483463E-002
   0.58000E-01  0.491945E-002
   0.59000E-01  0.500427E-002
   0.60000E-01  0.508909E-002
   0.61000E-01  0.517391E-002
   0.62000E-01  0.525872E-002
   0.63000E-01  0.534354E-002
   0.64000E-01  0.542836E-002
   0.65000E-01  0.551318E-002
   0.66000E-01  0.559800E-002
   0.67000E-01  0.568282E-002
   0.68000E-01  0.576763E-002
   0.69000E-01  0.585245E-002
   0.70000E-01  0.593727E-002
   0.71000E-01  0.602209E-002
   0.72000E-01  0.610691E-002
   0.73000E-01  0.619172E-002
   0.74000E-01  0.627654E-002
   0.75000E-01  0.636136E-002
   0.76000E-01  0.644618E-002
   0.77000E-01  0.653100E-002
   0.78000E-01  0.661581E-002
   0.79000E-01  0.670063E-002
   0.80000E-01  0.678545E-002
   0.81000E-01  0.687027E-002
   0.82000E-01  0.695509E-002
   0.83000E-01  0.703991E-002
   0.84000E-01  0.712472E-002
   0.85000E-01  0.720954E-002
   0.86000E-01  0.729436E-002
   0.87000E-01  0.737918E-002
   0.88000E-01  0.746400E-002
   0.89000E-01  0.754881E-002
   0.90000E-01  0.763363E-002
   0.91000E-01  0.771845E-002
   0.92000E-01  0.780327E-002
   0.93000E-01  0.788809E-002
   0.94000E-01  0.797291E-002
   0.95000E-01  0.805772E-002
   0.96000E-01  0.814254E-002
   0.97000E-01  0.822736E-002
   0.98000E-01  0.831218E-002
   0.99000E-01  0.839700E-002
   0.10000      0.848181E-002
   0.10100      0.856663E-002
   0.10200      0.865145E-002
   0.10300      0.873627E-002
   0.10400      0.882109E-002
   0.10500      0.890590E-002
   0.10600      0.899072E-002
   0.10700      0.907554E-002
   0.10800      0.916036E-002
   0.10900      0.924518E-002
   0.11000      0.933000E-002
   0.11100      0.941481E-002
   0.11200      0.949963E-002
   0.11300      0.958445E-002
   0.11400      0.966927E-002
   0.11500      0.975409E-002
   0.11600      0.983890E-002
   0.11700      0.992372E-002
   0.11800      0.100085E-001
   0.11900      0.100934E-001
   0.12000      0.101782E-001
   0.12100      0.102630E-001
   0.12200      0.103478E-001
   0.12300      0.104326E-001
   0.12400      0.105174E-001
   0.12500      0.106023E-001
   0.12600      0.106871E-001
   0.12700      0.107719E-001
   0.12800      0.108567E-001
   0.12900      0.109415E-001
   0.13000      0.110264E-001
   0.13100      0.111112E-001
   0.13200      0.111960E-001
   0.13300      0.112808E-001
   0.13400      0.113656E-001
   0.13500      0.114504E-001
   0.13600      0.115353E-001
   0.13700      0.116201E-001
   0.13800      0.117049E-001
   0.13900      0.117897E-001
   0.14000      0.118745E-001
   0.14100      0.119594E-001
   0.14200      0.120442E-001
   0.14300      0.121290E-001
   0.14400      0.122138E-001
   0.14500      0.122986E-001
   0.14600      0.123834E-001
   0.14700      0.124683E-001
   0.14800      0.125531E-001
   0.14900      0.126379E-001
   0.15000      0.127227E-001
   0.15100      0.128075E-001
   0.15200      0.128924E-001
   0.15300      0.129772E-001
   0.15400      0.130620E-001
   0.15500      0.131468E-001
   0.15600      0.132316E-001
   0.15700      0.133164E-001
   0.15800      0.134013E-001
   0.15900      0.134861E-001
   0.16000      0.135709E-001

   0.16100      0.136557E-001
   0.16200      0.137405E-001
   0.16300      0.138254E-001
   0.16400      0.139102E-001
   0.16500      0.139950E-001
   0.16600      0.140944E-001
   0.16700      0.142152E-001
   0.16800      0.143360E-001
   0.16900      0.144568E-001
   0.17000      0.146134E-001
   0.17100      0.148128E-001
   0.17200      0.150154E-001
   0.17300      0.152164E-001
   0.17400      0.154165E-001
   0.17500      0.156167E-001
   0.17600      0.158170E-001
   0.17700      0.160174E-001
   0.17800      0.162178E-001
   0.17900      0.164183E-001
   0.18000      0.166187E-001

   0.18100      0.168192E-001
   0.18200      0.170197E-001
   0.18300      0.172202E-001
   0.18400      0.174208E-001
   0.18500      0.176213E-001
   0.18600      0.178219E-001
   0.18700      0.180225E-001
   0.18800      0.182231E-001
   0.18900      0.184238E-001
   0.19000      0.186244E-001
   0.19100      0.188251E-001
   0.19200      0.190258E-001
   0.19300      0.192265E-001
   0.19400      0.194272E-001
   0.19500      0.196279E-001
   0.19600      0.198287E-001
   0.19700      0.200294E-001
   0.19800      0.202302E-001
   0.19900      0.204310E-001
   0.20000      0.206318E-001

   0.20100      0.208326E-001
   0.20200      0.210334E-001
   0.20300      0.212342E-001
   0.20400      0.214350E-001
   0.20500      0.216359E-001
   0.20600      0.218367E-001
   0.20700      0.220376E-001
   0.20800      0.222385E-001
   0.20900      0.224394E-001
   0.21000      0.226402E-001
   0.21100      0.228411E-001
   0.21200      0.230420E-001
   0.21300      0.232429E-001
   0.21400      0.234439E-001
   0.21500      0.236448E-001
   0.21600      0.238457E-001
   0.21700      0.240466E-001
   0.21800      0.242476E-001
   0.21900      0.244485E-001
   0.22000      0.246495E-001

   0.22100      0.248504E-001
   0.22200      0.250514E-001
   0.22300      0.252523E-001
   0.22400      0.254722E-001
   0.22500      0.257061E-001
   0.22600      0.259401E-001
   0.22700      0.261740E-001
   0.22800      0.264079E-001
   0.22900      0.266418E-001
   0.23000      0.268757E-001
   0.23100      0.271095E-001
   0.23200      0.273804E-001
   0.23300      0.276726E-001
   0.23400      0.279700E-001
   0.23500      0.282638E-001
   0.23600      0.285560E-001
   0.23700      0.288484E-001
   0.23800      0.291411E-001
   0.23900      0.294338E-001
   0.24000      0.297264E-001

   0.24100      0.300191E-001
   0.24200      0.303117E-001
   0.24300      0.306042E-001
   0.24400      0.308968E-001
[...]
   0.35100      0.833456E-001
   0.35200      0.841566E-001
   0.35300      0.849858E-001
   0.35400      0.857985E-001
   0.35500      0.866097E-001
   0.35600      0.874198E-001
   0.35700      0.882294E-001
   0.35800      0.890383E-001
   0.35900      0.898463E-001
   0.36000      0.906534E-001

   0.36100      0.914598E-001
   0.36200      0.922652E-001
   0.36300      0.930697E-001
   0.36400      0.938734E-001
   0.36500      0.946964E-001
   0.36600      0.955352E-001
   0.36700      0.964155E-001
   0.36800      0.973074E-001
   0.36900      0.981915E-001
   0.37000      0.990740E-001
   0.37100      0.999550E-001
   0.37200      0.100835
   0.37300      0.101714
   0.37400      0.102592
   0.37500      0.103469
   0.37600      0.104346
   0.37700      0.105280
   0.37800      0.106280
   0.37900      0.107289
   0.38000      0.108289

   0.38100      0.109285
   0.38200      0.110280
   0.38300      0.111273
   0.38400      0.112265
   0.38500      0.113255
   0.38600      0.114243
   0.38700      0.115230
   0.38800      0.116241
   0.38900      0.117294
   0.39000      0.118368
   0.39100      0.119439
   0.39200      0.120506
   0.39300      0.121569
   0.39400      0.122631
   0.39500      0.123691
   0.39600      0.124749
   0.39700      0.125840
   0.39800      0.127022
   0.39900      0.128222
   0.40000      0.129408

   0.40100      0.130588
   0.40200      0.131766
   0.40300      0.132941
   0.40400      0.134112
   0.40500      0.135281
   0.40600      0.136473
   0.40700      0.137723
   0.40800      0.138985
   0.40900      0.140237
   0.41000      0.141483
   0.41100      0.142726
   0.41200      0.143965
   0.41300      0.145212
   0.41400      0.146575
   0.41500      0.147964
   0.41600      0.149335
   0.41700      0.150698
   0.41800      0.152055
   0.41900      0.153408
   0.42000      0.154763

   0.42100      0.156169
   0.42200      0.157611
   0.42300      0.159049
   0.42400      0.160476
   0.42500      0.161897
   0.42600      0.163312
   0.42700      0.164831
   0.42800      0.166398
   0.42900      0.167955
   0.43000      0.169497
   0.43100      0.171031
   0.43200      0.172561
   0.43300      0.174148
   0.43400      0.175771
   0.43500      0.177386
   0.43600      0.178986
   0.43700      0.180576
   0.43800      0.182262
   0.43900      0.184009
   0.44000      0.185743

   0.44100      0.187457
   0.44200      0.189159
   0.44300      0.190915
   0.44400      0.192712
   0.44500      0.194499
   0.44600      0.196265
   0.44700      0.198072
   0.44800      0.199982
   0.44900      0.201897
   0.45000      0.203781
   0.45100      0.205657
   0.45200      0.207610
   0.45300      0.209576
   0.45400      0.211511
   0.45500      0.213482
   0.45600      0.215557
   0.45700      0.217633
   0.45800      0.219671
   0.45900      0.221758
   0.46000      0.223881

   0.46100      0.225980
   0.46200      0.228122
   0.46300      0.230355
   0.46400      0.232576
   0.46500      0.234786
   0.46600      0.237055
   0.46700      0.239314
   0.46800      0.241604
   0.46900      0.243984
   0.47000      0.246341
   0.47100      0.248733
   0.47200      0.251143
   0.47300      0.253546
   0.47400      0.256060
   0.47500      0.258569
   0.47600      0.261107
   0.47700      0.263644
   0.47800      0.266242
   0.47900      0.268892
   0.48000      0.271562

   0.48100      0.274235
   0.48200      0.276982
   0.48300      0.279766
   0.48400      0.282608
   0.48500      0.285477
   0.48600      0.288428
   0.48700      0.291472
   0.48800      0.294629
   0.48900      0.297959
   0.49000      0.301904
   0.49100      0.305883
   0.49111      0.306331

File: e11-2.txt
        0		0
   0.10000E-02  0.495638E-004
   0.20000E-02  0.991276E-004
   0.30000E-02  0.148691E-003
   0.40000E-02  0.198255E-003
   0.50000E-02  0.247819E-003
   0.60000E-02  0.297383E-003
   0.70000E-02  0.346947E-003
   0.80000E-02  0.396511E-003
   0.90000E-02  0.446074E-003
   0.10000E-01  0.495638E-003
   0.11000E-01  0.545202E-003
   0.12000E-01  0.594766E-003
   0.13000E-01  0.644330E-003
   0.14000E-01  0.693893E-003
   0.15000E-01  0.743457E-003
   0.16000E-01  0.793021E-003
   0.17000E-01  0.842585E-003
   0.18000E-01  0.892149E-003
   0.19000E-01  0.941713E-003
   0.20000E-01  0.991276E-003

   0.21000E-01  0.104084E-002
   0.22000E-01  0.109040E-002
   0.23000E-01  0.113997E-002
   0.24000E-01  0.118953E-002
   0.25000E-01  0.123910E-002
   0.26000E-01  0.128866E-002
   0.27000E-01  0.133822E-002
   0.28000E-01  0.138779E-002
   0.29000E-01  0.143735E-002
   0.30000E-01  0.148691E-002
   0.31000E-01  0.153648E-002
   0.32000E-01  0.158604E-002
   0.33000E-01  0.163561E-002
   0.34000E-01  0.168517E-002
   0.35000E-01  0.173473E-002
   0.36000E-01  0.178430E-002
   0.37000E-01  0.183386E-002
   0.38000E-01  0.188343E-002
   0.39000E-01  0.193299E-002
   0.40000E-01  0.198255E-002

   0.41000E-01  0.203212E-002
   0.42000E-01  0.208168E-002
   0.43000E-01  0.213124E-002
   0.44000E-01  0.218081E-002
   0.45000E-01  0.223037E-002
   0.46000E-01  0.227994E-002
   0.47000E-01  0.232950E-002
   0.48000E-01  0.237906E-002
   0.49000E-01  0.242863E-002
   0.50000E-01  0.247819E-002
   0.51000E-01  0.252775E-002
   0.52000E-01  0.257732E-002
   0.53000E-01  0.262688E-002
   0.54000E-01  0.267645E-002
   0.55000E-01  0.272601E-002
   0.56000E-01  0.277557E-002
   0.57000E-01  0.282514E-002
   0.58000E-01  0.287470E-002
   0.59000E-01  0.292427E-002
   0.60000E-01  0.297383E-002

   0.61000E-01  0.302339E-002
   0.62000E-01  0.307296E-002
   0.63000E-01  0.312252E-002
   0.64000E-01  0.317208E-002
   0.65000E-01  0.322165E-002
   0.66000E-01  0.327121E-002
   0.67000E-01  0.332078E-002
   0.68000E-01  0.337034E-002
   0.69000E-01  0.341990E-002
   0.70000E-01  0.346947E-002
   0.71000E-01  0.351903E-002
   0.72000E-01  0.356859E-002
   0.73000E-01  0.361816E-002
   0.74000E-01  0.366772E-002
   0.75000E-01  0.371729E-002
   0.76000E-01  0.376685E-002
   0.77000E-01  0.381641E-002
   0.78000E-01  0.386598E-002
   0.79000E-01  0.391554E-002
   0.80000E-01  0.396511E-002

   0.81000E-01  0.401467E-002
   0.82000E-01  0.406423E-002
   0.83000E-01  0.411380E-002
   0.84000E-01  0.416336E-002
   0.85000E-01  0.421292E-002
   0.86000E-01  0.426249E-002
   0.87000E-01  0.431205E-002
   0.88000E-01  0.436162E-002
   0.89000E-01  0.441118E-002
   0.90000E-01  0.446074E-002
   0.91000E-01  0.451031E-002
   0.92000E-01  0.455987E-002
   0.93000E-01  0.460943E-002
   0.94000E-01  0.465900E-002
   0.95000E-01  0.470856E-002
   0.96000E-01  0.475813E-002
   0.97000E-01  0.480769E-002
   0.98000E-01  0.485725E-002
   0.99000E-01  0.490682E-002
   0.10000      0.495638E-002

   0.10100      0.500595E-002
   0.10200      0.505551E-002
   0.10300      0.510507E-002
   0.10400      0.515464E-002
   0.10500      0.520420E-002
   0.10600      0.525376E-002
   0.10700      0.530333E-002
   0.10800      0.535289E-002
   0.10900      0.540246E-002
   0.11000      0.545202E-002
   0.11100      0.550158E-002
   0.11200      0.555115E-002
   0.11300      0.560071E-002
   0.11400      0.565027E-002
   0.11500      0.569984E-002
   0.11600      0.574940E-002
   0.11700      0.579897E-002
   0.11800      0.584853E-002
   0.11900      0.589809E-002
   0.12000      0.594766E-002

   0.12100      0.599722E-002
   0.12200      0.604679E-002
   0.12300      0.609635E-002
   0.12400      0.614591E-002
   0.12500      0.619548E-002
   0.12600      0.624504E-002
   0.12700      0.629460E-002
   0.12800      0.634417E-002
   0.12900      0.639373E-002
   0.13000      0.644330E-002
   0.13100      0.649286E-002
   0.13200      0.654242E-002
   0.13300      0.659199E-002
   0.13400      0.664155E-002
   0.13500      0.669111E-002
   0.13600      0.674068E-002
   0.13700      0.679024E-002
   0.13800      0.683981E-002
   0.13900      0.688937E-002
   0.14000      0.693893E-002

   0.14100      0.698850E-002
   0.14200      0.703806E-002
   0.14300      0.708763E-002
   0.14400      0.713719E-002
   0.14500      0.718675E-002
   0.14600      0.723632E-002
   0.14700      0.728588E-002
   0.14800      0.733544E-002
   0.14900      0.738501E-002
   0.15000      0.743457E-002
   0.15100      0.748414E-002
   0.15200      0.753370E-002
   0.15300      0.758326E-002
   0.15400      0.763283E-002
   0.15500      0.768239E-002
   0.15600      0.773196E-002
   0.15700      0.778152E-002
   0.15800      0.783108E-002
   0.15900      0.788065E-002
   0.16000      0.793021E-002

   0.16100      0.797977E-002
   0.16200      0.802934E-002
   0.16300      0.807890E-002
   0.16400      0.812847E-002
   0.16500      0.817803E-002
   0.16600      0.823219E-002
   0.16700      0.829309E-002
   0.16800      0.835399E-002
   0.16900      0.841489E-002
   0.17000      0.848806E-002
   0.17100      0.857482E-002
   0.17200      0.866195E-002
   0.17300      0.874906E-002
   0.17400      0.883591E-002
   0.17500      0.892281E-002
   0.17600      0.900971E-002
   0.17700      0.909662E-002
   0.17800      0.918352E-002
   0.17900      0.927041E-002
   0.18000      0.935730E-002

   0.18100      0.944418E-002
   0.18200      0.953106E-002
   0.18300      0.961794E-002
   0.18400      0.970481E-002
   0.18500      0.979168E-002
   0.18600      0.987854E-002
   0.18700      0.996540E-002
   0.18800      0.100522E-001
   0.18900      0.101391E-001
   0.19000      0.102259E-001
   0.19100      0.103128E-001
   0.19200      0.103996E-001
   0.19300      0.104865E-001
   0.19400      0.105733E-001
   0.19500      0.106601E-001
   0.19600      0.107469E-001
   0.19700      0.108337E-001
   0.19800      0.109206E-001
   0.19900      0.110074E-001
   0.20000      0.110942E-001

   0.20100      0.111810E-001
   0.20200      0.112678E-001
   0.20300      0.113546E-001
   0.20400      0.114414E-001
   0.20500      0.115282E-001
   0.20600      0.116149E-001
   0.20700      0.117017E-001
   0.20800      0.117885E-001
   0.20900      0.118753E-001
   0.21000      0.119620E-001
   0.21100      0.120488E-001
   0.21200      0.121356E-001
   0.21300      0.122223E-001
   0.21400      0.123091E-001
   0.21500      0.123958E-001
   0.21600      0.124826E-001
   0.21700      0.125693E-001
   0.21800      0.126561E-001
   0.21900      0.127428E-001
   0.22000      0.128296E-001

   0.22100      0.129163E-001
   0.22200      0.130030E-001
   0.22300      0.130898E-001
   0.22400      0.131932E-001
   0.22500      0.133090E-001
   0.22600      0.134248E-001
   0.22700      0.135405E-001
   0.22800      0.136562E-001
   0.22900      0.137719E-001
   0.23000      0.138876E-001
   0.23100      0.140034E-001
   0.23200      0.141548E-001
   0.23300      0.143182E-001
   0.23400      0.144864E-001
   0.23500      0.146530E-001
   0.23600      0.148188E-001
   0.23700      0.149847E-001
   0.23800      0.151507E-001
   0.23900      0.153167E-001
   0.24000      0.154828E-001

   0.24100      0.156487E-001
   0.24200      0.158147E-001
   0.24300      0.159807E-001
[...]
   0.35500      0.633973E-001
   0.35600      0.641859E-001
   0.35700      0.649744E-001
   0.35800      0.657621E-001
   0.35900      0.665492E-001
   0.36000      0.673357E-001

   0.36100      0.681213E-001
   0.36200      0.689060E-001
   0.36300      0.696897E-001
   0.36400      0.704726E-001
   0.36500      0.712757E-001
   0.36600      0.720961E-001
   0.36700      0.729597E-001
   0.36800      0.738456E-001
   0.36900      0.747197E-001
   0.37000      0.755894E-001
   0.37100      0.764578E-001
   0.37200      0.773256E-001
   0.37300      0.781926E-001
   0.37400      0.790586E-001
   0.37500      0.799235E-001
   0.37600      0.807883E-001
   0.37700      0.817127E-001
   0.37800      0.827091E-001
   0.37900      0.837247E-001
   0.38000      0.847252E-001

   0.38100      0.857216E-001
   0.38200      0.867158E-001
   0.38300      0.877085E-001
   0.38400      0.886997E-001
   0.38500      0.896891E-001
   0.38600      0.906767E-001
   0.38700      0.916624E-001
   0.38800      0.926741E-001
   0.38900      0.937319E-001
   0.39000      0.948141E-001
   0.39100      0.958946E-001
   0.39200      0.969687E-001
   0.39300      0.980396E-001
   0.39400      0.991084E-001
   0.39500      0.100175
   0.39600      0.101239
   0.39700      0.102340
   0.39800      0.103538
   0.39900      0.104761
   0.40000      0.105967

   0.40100      0.107166
   0.40200      0.108362
   0.40300      0.109555
   0.40400      0.110745
   0.40500      0.111931
   0.40600      0.113143
   0.40700      0.114417
   0.40800      0.115708
   0.40900      0.116985
   0.41000      0.118258
   0.41100      0.119526
   0.41200      0.120790
   0.41300      0.122061
   0.41400      0.123460
   0.41500      0.124889
   0.41600      0.126298
   0.41700      0.127698
   0.41800      0.129092
   0.41900      0.130481
   0.42000      0.131872

   0.42100      0.133318
   0.42200      0.134805
   0.42300      0.136289
   0.42400      0.137759
   0.42500      0.139223
   0.42600      0.140680
   0.42700      0.142251
   0.42800      0.143875
   0.42900      0.145489
   0.43000      0.147086
   0.43100      0.148674
   0.43200      0.150258
   0.43300      0.151903
   0.43400      0.153589
   0.43500      0.155266
   0.43600      0.156927
   0.43700      0.158577
   0.43800      0.160330
   0.43900      0.162153
   0.44000      0.163962

   0.44100      0.165748
   0.44200      0.167521
   0.44300      0.169352
   0.44400      0.171230
   0.44500      0.173097
   0.44600      0.174940
   0.44700      0.176829
   0.44800      0.178829
   0.44900      0.180838
   0.45000      0.182811
   0.45100      0.184776
   0.45200      0.186825
   0.45300      0.188889
   0.45400      0.190919
   0.45500      0.192988
   0.45600      0.195171
   0.45700      0.197358
   0.45800      0.199501
   0.45900      0.201699
   0.46000      0.203936

   0.46100      0.206148
   0.46200      0.208406
   0.46300      0.210765
   0.46400      0.213112
   0.46500      0.215446
   0.46600      0.217844
   0.46700      0.220233
   0.46800      0.222657
   0.46900      0.225178
   0.47000      0.227677
   0.47100      0.230213
   0.47200      0.232770
   0.47300      0.235319
   0.47400      0.237991
   0.47500      0.240660
   0.47600      0.243359
   0.47700      0.246058
   0.47800      0.248827
   0.47900      0.251652
   0.48000      0.254500

   0.48100      0.257353
   0.48200      0.260289
   0.48300      0.263266
   0.48400      0.266308
   0.48500      0.269383
   0.48600      0.272549
   0.48700      0.275820
   0.48800      0.279220
   0.48900      0.282814
   0.49000      0.287105
   0.49100      0.291377
   0.49111      0.291858