Folder: Report-results/4. Notched tensile specimen/Matrix/h = 1mm

File: e11-1.txt
        0		0
   0.10000E-02  0.737835E-004
   0.20000E-02  0.147567E-003
   0.30000E-02  0.221351E-003
   0.40000E-02  0.295134E-003
   0.50000E-02  0.368918E-003
   0.60000E-02  0.442701E-003
   0.70000E-02  0.516485E-003
   0.80000E-02  0.590268E-003
   0.90000E-02  0.664052E-003
   0.10000E-01  0.737835E-003
   0.11000E-01  0.811619E-003
   0.12000E-01  0.885402E-003
   0.13000E-01  0.959186E-003
   0.14000E-01  0.103297E-002
   0.15000E-01  0.110675E-002
   0.16000E-01  0.118054E-002
   0.17000E-01  0.125432E-002
   0.18000E-01  0.132810E-002
   0.19000E-01  0.140189E-002
   0.20000E-01  0.147567E-002

   0.21000E-01  0.154945E-002
   0.22000E-01  0.162324E-002
   0.23000E-01  0.169702E-002
   0.24000E-01  0.177080E-002
   0.25000E-01  0.184459E-002
   0.26000E-01  0.191837E-002
   0.27000E-01  0.199216E-002
   0.28000E-01  0.206594E-002
   0.29000E-01  0.213972E-002
   0.30000E-01  0.221351E-002
   0.31000E-01  0.228729E-002
   0.32000E-01  0.236107E-002
   0.33000E-01  0.243486E-002
   0.34000E-01  0.250864E-002
   0.35000E-01  0.258242E-002
   0.36000E-01  0.265621E-002
   0.37000E-01  0.272999E-002
   0.38000E-01  0.280377E-002
   0.39000E-01  0.287756E-002
   0.40000E-01  0.295134E-002

   0.41000E-01  0.302512E-002
   0.42000E-01  0.309891E-002
   0.43000E-01  0.317269E-002
   0.44000E-01  0.324648E-002
   0.45000E-01  0.332026E-002
   0.46000E-01  0.339404E-002
   0.47000E-01  0.346783E-002
   0.48000E-01  0.354161E-002
   0.49000E-01  0.361539E-002
   0.50000E-01  0.368918E-002
   0.51000E-01  0.376296E-002
   0.52000E-01  0.383674E-002
   0.53000E-01  0.391053E-002
   0.54000E-01  0.398431E-002
   0.55000E-01  0.405809E-002
   0.56000E-01  0.413188E-002
   0.57000E-01  0.420566E-002
   0.58000E-01  0.427944E-002
   0.59000E-01  0.435323E-002
   0.60000E-01  0.442701E-002

   0.61000E-01  0.450080E-002
   0.62000E-01  0.457458E-002
   0.63000E-01  0.464836E-002
   0.64000E-01  0.472215E-002
   0.65000E-01  0.479593E-002
   0.66000E-01  0.486971E-002
   0.67000E-01  0.494350E-002
   0.68000E-01  0.501728E-002
   0.69000E-01  0.509106E-002
   0.70000E-01  0.516485E-002
   0.71000E-01  0.523863E-002
   0.72000E-01  0.531241E-002
   0.73000E-01  0.538620E-002
   0.74000E-01  0.545998E-002
   0.75000E-01  0.553376E-002
   0.76000E-01  0.560755E-002
   0.77000E-01  0.568133E-002
   0.78000E-01  0.575511E-002
   0.79000E-01  0.582890E-002
   0.80000E-01  0.590268E-002

   0.81000E-01  0.597647E-002
   0.82000E-01  0.605025E-002
   0.83000E-01  0.612403E-002
   0.84000E-01  0.619782E-002
   0.85000E-01  0.627160E-002
   0.86000E-01  0.634538E-002
   0.87000E-01  0.641917E-002
   0.88000E-01  0.649295E-002
   0.89000E-01  0.656673E-002
   0.90000E-01  0.664052E-002
   0.91000E-01  0.671430E-002
   0.92000E-01  0.678808E-002
   0.93000E-01  0.686187E-002
   0.94000E-01  0.693565E-002
   0.95000E-01  0.700943E-002
   0.96000E-01  0.708322E-002
   0.97000E-01  0.715700E-002
   0.98000E-01  0.723079E-002
   0.99000E-01  0.730457E-002
   0.10000      0.737835E-002

   0.10100      0.745214E-002
   0.10200      0.752592E-002
   0.10300      0.759970E-002
   0.10400      0.767349E-002
   0.10500      0.774727E-002
   0.10600      0.782105E-002
   0.10700      0.789484E-002
   0.10800      0.796862E-002
   0.10900      0.804240E-002
   0.11000      0.811619E-002
   0.11100      0.818997E-002
   0.11200      0.826375E-002
   0.11300      0.833754E-002
   0.11400      0.841132E-002
   0.11500      0.848510E-002
   0.11600      0.855889E-002
   0.11700      0.863267E-002
   0.11800      0.870646E-002
   0.11900      0.878024E-002
   0.12000      0.885402E-002

   0.12100      0.892781E-002
   0.12200      0.900159E-002
   0.12300      0.907537E-002
   0.12400      0.914916E-002
   0.12500      0.922294E-002
   0.12600      0.929672E-002
   0.12700      0.937051E-002
   0.12800      0.944429E-002
   0.12900      0.951807E-002
   0.13000      0.959186E-002
   0.13100      0.966564E-002
   0.13200      0.973943E-002
   0.13300      0.981321E-002
   0.13400      0.988699E-002
   0.13500      0.996078E-002
   0.13600      0.100346E-001
   0.13700      0.101083E-001
   0.13800      0.101821E-001
   0.13900      0.102559E-001
   0.14000      0.103297E-001

   0.14100      0.104035E-001
   0.14200      0.104773E-001
   0.14300      0.105510E-001
   0.14400      0.106248E-001
   0.14500      0.106986E-001
   0.14600      0.107724E-001
   0.14700      0.108462E-001
   0.14800      0.109200E-001
   0.14900      0.109937E-001
   0.15000      0.110675E-001
   0.15100      0.111413E-001
   0.15200      0.112151E-001
   0.15300      0.112889E-001
   0.15400      0.113627E-001
   0.15500      0.114364E-001
   0.15600      0.115102E-001
   0.15700      0.115840E-001
   0.15800      0.116578E-001
   0.15900      0.117316E-001
   0.16000      0.118054E-001

   0.16100      0.118791E-001
   0.16200      0.119529E-001
   0.16300      0.120267E-001
   0.16400      0.121005E-001
   0.16500      0.121743E-001
   0.16600      0.122481E-001
   0.16700      0.123218E-001
   0.16800      0.123956E-001
   0.16900      0.124694E-001
   0.17000      0.125432E-001
   0.17100      0.126170E-001
   0.17200      0.126908E-001
   0.17300      0.127645E-001
   0.17400      0.128383E-001
   0.17500      0.129121E-001
   0.17600      0.129859E-001
   0.17700      0.130597E-001
   0.17800      0.131335E-001
   0.17900      0.132073E-001
   0.18000      0.132810E-001

   0.18100      0.133548E-001
   0.18200      0.134286E-001
   0.18300      0.135024E-001
   0.18400      0.135762E-001
   0.18500      0.136500E-001
   0.18600      0.137237E-001
   0.18700      0.137975E-001
   0.18800      0.138713E-001
   0.18900      0.139451E-001
   0.19000      0.140189E-001
   0.19100      0.141130E-001
   0.19200      0.142163E-001
   0.19300      0.143197E-001
   0.19400      0.144231E-001
   0.19500      0.145264E-001
   0.19600      0.146298E-001
   0.19700      0.147332E-001
   0.19800      0.148365E-001
   0.19900      0.149399E-001
   0.20000      0.150432E-001

   0.20100      0.151466E-001
   0.20200      0.152994E-001
   0.20300      0.154589E-001
   0.20400      0.156182E-001
   0.20500      0.157760E-001
   0.20600      0.159339E-001
   0.20700      0.160919E-001
   0.20800      0.162499E-001
   0.20900      0.164079E-001
   0.21000      0.165659E-001
   0.21100      0.167239E-001
   0.21200      0.168818E-001
   0.21300      0.170398E-001
   0.21400      0.171978E-001
   0.21500      0.173559E-001
   0.21600      0.175139E-001
   0.21700      0.176719E-001
   0.21800      0.178299E-001
   0.21900      0.179879E-001
   0.22000      0.181459E-001

   0.22100      0.183039E-001
   0.22200      0.184619E-001
   0.22300      0.186199E-001
   0.22400      0.187779E-001
   0.22500      0.189359E-001
   0.22600      0.190939E-001
   0.22700      0.192519E-001
   0.22800      0.194099E-001
   0.22900      0.195679E-001
   0.23000      0.197259E-001
   0.23100      0.198839E-001
   0.23200      0.200419E-001
   0.23300      0.201999E-001
   0.23400      0.203579E-001
   0.23500      0.205159E-001
   0.23600      0.206739E-001
   0.23700      0.208318E-001
   0.23800      0.209898E-001
   0.23900      0.211478E-001
   0.24000      0.213058E-001

   0.24100      0.214638E-001
   0.24200      0.216217E-001
   0.24300      0.217797E-001
[...]
   0.38500      0.566877E-001
   0.38600      0.570881E-001
   0.38700      0.574882E-001
   0.38800      0.578882E-001
   0.38900      0.582880E-001
   0.39000      0.586908E-001
   0.39100      0.591053E-001
   0.39200      0.595144E-001
   0.39300      0.599399E-001
   0.39400      0.603752E-001
   0.39500      0.608519E-001
   0.39600      0.613463E-001
   0.39700      0.618388E-001
   0.39800      0.623314E-001
   0.39900      0.628224E-001
   0.40000      0.633139E-001

   0.40100      0.638054E-001
   0.40200      0.642980E-001
   0.40300      0.647887E-001
   0.40400      0.652795E-001
   0.40500      0.657701E-001
   0.40600      0.662602E-001
   0.40700      0.667497E-001
   0.40800      0.672387E-001
   0.40900      0.677273E-001
   0.41000      0.682154E-001
   0.41100      0.687030E-001
   0.41200      0.691910E-001
   0.41300      0.696843E-001
   0.41400      0.701966E-001
   0.41500      0.707069E-001
   0.41600      0.712188E-001
   0.41700      0.717286E-001
   0.41800      0.722590E-001
   0.41900      0.728129E-001
   0.42000      0.733582E-001

   0.42100      0.739049E-001
   0.42200      0.744507E-001
   0.42300      0.749994E-001
   0.42400      0.755479E-001
   0.42500      0.760949E-001
   0.42600      0.766438E-001
   0.42700      0.771993E-001
   0.42800      0.777545E-001
   0.42900      0.783099E-001
   0.43000      0.788638E-001
   0.43100      0.794349E-001
   0.43200      0.800544E-001
   0.43300      0.807061E-001
   0.43400      0.813476E-001
   0.43500      0.819905E-001
   0.43600      0.826278E-001
   0.43700      0.832659E-001
   0.43800      0.839015E-001
   0.43900      0.845369E-001
   0.44000      0.851703E-001

   0.44100      0.858027E-001
   0.44200      0.864337E-001
   0.44300      0.870634E-001
   0.44400      0.877009E-001
   0.44500      0.883571E-001
   0.44600      0.890095E-001
   0.44700      0.896869E-001
   0.44800      0.903864E-001
   0.44900      0.910743E-001
   0.45000      0.917628E-001
   0.45100      0.924469E-001
   0.45200      0.931317E-001
   0.45300      0.938171E-001
   0.45400      0.945030E-001
   0.45500      0.951919E-001
   0.45600      0.959044E-001
   0.45700      0.966786E-001
   0.45800      0.974753E-001
   0.45900      0.982510E-001
   0.46000      0.990260E-001

   0.46100      0.997977E-001
   0.46200      0.100567
   0.46300      0.101334
   0.46400      0.102101
   0.46500      0.102866
   0.46600      0.103646
   0.46700      0.104454
   0.46800      0.105276
   0.46900      0.106096
   0.47000      0.106917
   0.47100      0.107729
   0.47200      0.108540
   0.47300      0.109351
   0.47400      0.110171
   0.47500      0.111058
   0.47600      0.111990
   0.47700      0.112885
   0.47800      0.113785
   0.47900      0.114673
   0.48000      0.115559

   0.48100      0.116443
   0.48200      0.117343
   0.48300      0.118285
   0.48400      0.119232
   0.48500      0.120168
   0.48600      0.121096
   0.48700      0.122020
   0.48800      0.122953
   0.48900      0.123953
   0.49000      0.124993
   0.49100      0.126000
   0.49200      0.126999
   0.49300      0.127993
   0.49400      0.128996
   0.49500      0.130033
   0.49600      0.131092
   0.49700      0.132124
   0.49800      0.133151
   0.49900      0.134196
   0.50000      0.135302

   0.50100      0.136432
   0.50200      0.137529
   0.50300      0.138617
   0.50400      0.139737
   0.50500      0.140892
   0.50600      0.142022
   0.50700      0.143151
   0.50800      0.144342
   0.50900      0.145586
   0.51000      0.146799
   0.51100      0.148047
   0.51200      0.149325
   0.51300      0.150807
   0.51345      0.153608
   0.51354      0.155380

File: e11-2.txt
       0		0
   0.10000E-02  0.360884E-004
   0.20000E-02  0.721767E-004
   0.30000E-02  0.108265E-003
   0.40000E-02  0.144353E-003
   0.50000E-02  0.180442E-003
   0.60000E-02  0.216530E-003
   0.70000E-02  0.252619E-003
   0.80000E-02  0.288707E-003
   0.90000E-02  0.324795E-003
   0.10000E-01  0.360884E-003
   0.11000E-01  0.396972E-003
   0.12000E-01  0.433060E-003
   0.13000E-01  0.469149E-003
   0.14000E-01  0.505237E-003
   0.15000E-01  0.541326E-003
   0.16000E-01  0.577414E-003
   0.17000E-01  0.613502E-003
   0.18000E-01  0.649591E-003
   0.19000E-01  0.685679E-003
   0.20000E-01  0.721767E-003

   0.21000E-01  0.757856E-003
   0.22000E-01  0.793944E-003
   0.23000E-01  0.830033E-003
   0.24000E-01  0.866121E-003
   0.25000E-01  0.902209E-003
   0.26000E-01  0.938298E-003
   0.27000E-01  0.974386E-003
   0.28000E-01  0.101047E-002
   0.29000E-01  0.104656E-002
   0.30000E-01  0.108265E-002
   0.31000E-01  0.111874E-002
   0.32000E-01  0.115483E-002
   0.33000E-01  0.119092E-002
   0.34000E-01  0.122700E-002
   0.35000E-01  0.126309E-002
   0.36000E-01  0.129918E-002
   0.37000E-01  0.133527E-002
   0.38000E-01  0.137136E-002
   0.39000E-01  0.140745E-002
   0.40000E-01  0.144353E-002

   0.41000E-01  0.147962E-002
   0.42000E-01  0.151571E-002
   0.43000E-01  0.155180E-002
   0.44000E-01  0.158789E-002
   0.45000E-01  0.162398E-002
   0.46000E-01  0.166007E-002
   0.47000E-01  0.169615E-002
   0.48000E-01  0.173224E-002
   0.49000E-01  0.176833E-002
   0.50000E-01  0.180442E-002
   0.51000E-01  0.184051E-002
   0.52000E-01  0.187660E-002
   0.53000E-01  0.191268E-002
   0.54000E-01  0.194877E-002
   0.55000E-01  0.198486E-002
   0.56000E-01  0.202095E-002
   0.57000E-01  0.205704E-002
   0.58000E-01  0.209313E-002
   0.59000E-01  0.212921E-002
   0.60000E-01  0.216530E-002

   0.61000E-01  0.220139E-002
   0.62000E-01  0.223748E-002
   0.63000E-01  0.227357E-002
   0.64000E-01  0.230966E-002
   0.65000E-01  0.234574E-002
   0.66000E-01  0.238183E-002
   0.67000E-01  0.241792E-002
   0.68000E-01  0.245401E-002
   0.69000E-01  0.249010E-002
   0.70000E-01  0.252619E-002
   0.71000E-01  0.256227E-002
   0.72000E-01  0.259836E-002
   0.73000E-01  0.263445E-002
   0.74000E-01  0.267054E-002
   0.75000E-01  0.270663E-002
   0.76000E-01  0.274272E-002
   0.77000E-01  0.277880E-002
   0.78000E-01  0.281489E-002
   0.79000E-01  0.285098E-002
   0.80000E-01  0.288707E-002

   0.81000E-01  0.292316E-002
   0.82000E-01  0.295925E-002
   0.83000E-01  0.299533E-002
   0.84000E-01  0.303142E-002
   0.85000E-01  0.306751E-002
   0.86000E-01  0.310360E-002
   0.87000E-01  0.313969E-002
   0.88000E-01  0.317578E-002
   0.89000E-01  0.321186E-002
   0.90000E-01  0.324795E-002
   0.91000E-01  0.328404E-002
   0.92000E-01  0.332013E-002
   0.93000E-01  0.335622E-002
   0.94000E-01  0.339231E-002
   0.95000E-01  0.342840E-002
   0.96000E-01  0.346448E-002
   0.97000E-01  0.350057E-002
   0.98000E-01  0.353666E-002
   0.99000E-01  0.357275E-002
   0.10000      0.360884E-002

   0.10100      0.364493E-002
   0.10200      0.368101E-002
   0.10300      0.371710E-002
   0.10400      0.375319E-002
   0.10500      0.378928E-002
   0.10600      0.382537E-002
   0.10700      0.386146E-002
   0.10800      0.389754E-002
   0.10900      0.393363E-002
   0.11000      0.396972E-002
   0.11100      0.400581E-002
   0.11200      0.404190E-002
   0.11300      0.407799E-002
   0.11400      0.411407E-002
   0.11500      0.415016E-002
   0.11600      0.418625E-002
   0.11700      0.422234E-002
   0.11800      0.425843E-002
   0.11900      0.429452E-002
   0.12000      0.433060E-002

   0.12100      0.436669E-002
   0.12200      0.440278E-002
   0.12300      0.443887E-002
   0.12400      0.447496E-002
   0.12500      0.451105E-002
   0.12600      0.454713E-002
   0.12700      0.458322E-002
   0.12800      0.461931E-002
   0.12900      0.465540E-002
   0.13000      0.469149E-002
   0.13100      0.472758E-002
   0.13200      0.476367E-002
   0.13300      0.479975E-002
   0.13400      0.483584E-002
   0.13500      0.487193E-002
   0.13600      0.490802E-002
   0.13700      0.494411E-002
   0.13800      0.498020E-002
   0.13900      0.501628E-002
   0.14000      0.505237E-002

   0.14100      0.508846E-002
   0.14200      0.512455E-002
   0.14300      0.516064E-002
   0.14400      0.519673E-002
   0.14500      0.523281E-002
   0.14600      0.526890E-002
   0.14700      0.530499E-002
   0.14800      0.534108E-002
   0.14900      0.537717E-002
   0.15000      0.541326E-002
   0.15100      0.544934E-002
   0.15200      0.548543E-002
   0.15300      0.552152E-002
   0.15400      0.555761E-002
   0.15500      0.559370E-002
   0.15600      0.562979E-002
   0.15700      0.566587E-002
   0.15800      0.570196E-002
   0.15900      0.573805E-002
   0.16000      0.577414E-002

   0.16100      0.581023E-002
   0.16200      0.584632E-002
   0.16300      0.588240E-002
   0.16400      0.591849E-002
   0.16500      0.595458E-002
   0.16600      0.599067E-002
   0.16700      0.602676E-002
   0.16800      0.606285E-002
   0.16900      0.609893E-002
   0.17000      0.613502E-002
   0.17100      0.617111E-002
   0.17200      0.620720E-002
   0.17300      0.624329E-002
   0.17400      0.627938E-002
   0.17500      0.631547E-002
   0.17600      0.635155E-002
   0.17700      0.638764E-002
   0.17800      0.642373E-002
   0.17900      0.645982E-002
   0.18000      0.649591E-002

   0.18100      0.653200E-002
   0.18200      0.656808E-002
   0.18300      0.660417E-002
   0.18400      0.664026E-002
   0.18500      0.667635E-002
   0.18600      0.671244E-002
   0.18700      0.674853E-002
   0.18800      0.678461E-002
   0.18900      0.682070E-002
   0.19000      0.685679E-002
   0.19100      0.689913E-002
   0.19200      0.694430E-002
   0.19300      0.698948E-002
   0.19400      0.703465E-002
   0.19500      0.707983E-002
   0.19600      0.712501E-002
   0.19700      0.717018E-002
   0.19800      0.721536E-002
   0.19900      0.726054E-002
   0.20000      0.730571E-002

   0.20100      0.735089E-002
   0.20200      0.741438E-002
   0.20300      0.747851E-002
   0.20400      0.754326E-002
   0.20500      0.760756E-002
   0.20600      0.767192E-002
   0.20700      0.773629E-002
   0.20800      0.780066E-002
   0.20900      0.786502E-002
   0.21000      0.792937E-002
   0.21100      0.799372E-002
   0.21200      0.805807E-002
   0.21300      0.812240E-002
   0.21400      0.818674E-002
   0.21500      0.825107E-002
   0.21600      0.831539E-002
   0.21700      0.837971E-002
   0.21800      0.844402E-002
   0.21900      0.850833E-002
   0.22000      0.857263E-002

   0.22100      0.863693E-002
   0.22200      0.870122E-002
   0.22300      0.876551E-002
   0.22400      0.882979E-002
   0.22500      0.889407E-002
   0.22600      0.895835E-002
   0.22700      0.902262E-002
   0.22800      0.908688E-002
   0.22900      0.915114E-002
   0.23000      0.921540E-002
   0.23100      0.927965E-002
   0.23200      0.934389E-002
   0.23300      0.940814E-002
   0.23400      0.947237E-002
   0.23500      0.953661E-002
   0.23600      0.960083E-002
   0.23700      0.966506E-002
   0.23800      0.972928E-002
   0.23900      0.979349E-002
   0.24000      0.985770E-002

   0.24100      0.992191E-002
   0.24200      0.998611E-002
   0.24300      0.100503E-001
[...]
   0.39000      0.332561E-001
   0.39100      0.336535E-001
   0.39200      0.340350E-001
   0.39300      0.344371E-001
   0.39400      0.348510E-001
   0.39500      0.353169E-001
   0.39600      0.357920E-001
   0.39700      0.362680E-001
   0.39800      0.367430E-001
   0.39900      0.372189E-001
   0.40000      0.376954E-001

   0.40100      0.381716E-001
   0.40200      0.386503E-001
   0.40300      0.391222E-001
   0.40400      0.395974E-001
   0.40500      0.400728E-001
   0.40600      0.405479E-001
   0.40700      0.410222E-001
   0.40800      0.414962E-001
   0.40900      0.419700E-001
   0.41000      0.424432E-001
   0.41100      0.429161E-001
   0.41200      0.433899E-001
   0.41300      0.438716E-001
   0.41400      0.443801E-001
   0.41500      0.448729E-001
   0.41600      0.453750E-001
   0.41700      0.458748E-001
   0.41800      0.464023E-001
   0.41900      0.469607E-001
   0.42000      0.475001E-001

   0.42100      0.480440E-001
   0.42200      0.485891E-001
   0.42300      0.491403E-001
   0.42400      0.496860E-001
   0.42500      0.502317E-001
   0.42600      0.507814E-001
   0.42700      0.513404E-001
   0.42800      0.518934E-001
   0.42900      0.524481E-001
   0.43000      0.530023E-001
   0.43100      0.535750E-001
   0.43200      0.542027E-001
   0.43300      0.548831E-001
   0.43400      0.555400E-001
   0.43500      0.562040E-001
   0.43600      0.568587E-001
   0.43700      0.575163E-001
   0.43800      0.581690E-001
   0.43900      0.588226E-001
   0.44000      0.594733E-001

   0.44100      0.601230E-001
   0.44200      0.607712E-001
   0.44300      0.614181E-001
   0.44400      0.620723E-001
   0.44500      0.627508E-001
   0.44600      0.634260E-001
   0.44700      0.641283E-001
   0.44800      0.648596E-001
   0.44900      0.655775E-001
   0.45000      0.662957E-001
   0.45100      0.670076E-001
   0.45200      0.677208E-001
   0.45300      0.684340E-001
   0.45400      0.691481E-001
   0.45500      0.698661E-001
   0.45600      0.706156E-001
   0.45700      0.714327E-001
   0.45800      0.722801E-001
   0.45900      0.731013E-001
   0.46000      0.739252E-001

   0.46100      0.747426E-001
   0.46200      0.755577E-001
   0.46300      0.763694E-001
   0.46400      0.771811E-001
   0.46500      0.779911E-001
   0.46600      0.788197E-001
   0.46700      0.796829E-001
   0.46800      0.805615E-001
   0.46900      0.814358E-001
   0.47000      0.823128E-001
   0.47100      0.831794E-001
   0.47200      0.840450E-001
   0.47300      0.849111E-001
   0.47400      0.857880E-001
   0.47500      0.867433E-001
   0.47600      0.877575E-001
   0.47700      0.887210E-001
   0.47800      0.896961E-001
   0.47900      0.906541E-001
   0.48000      0.916107E-001

   0.48100      0.925654E-001
   0.48200      0.935380E-001
   0.48300      0.945629E-001
   0.48400      0.955928E-001
   0.48500      0.966097E-001
   0.48600      0.976181E-001
   0.48700      0.986202E-001
   0.48800      0.996342E-001
   0.48900      0.100728
   0.49000      0.101874
   0.49100      0.102976
   0.49200      0.104071
   0.49300      0.105160
   0.49400      0.106259
   0.49500      0.107399
   0.49600      0.108568
   0.49700      0.109703
   0.49800      0.110832
   0.49900      0.111983
   0.50000      0.113209

   0.50100      0.114466
   0.50200      0.115681
   0.50300      0.116886
   0.50400      0.118129
   0.50500      0.119419
   0.50600      0.120675
   0.50700      0.121931
   0.50800      0.123263
   0.50900      0.124663
   0.51000      0.126025
   0.51100      0.127429
   0.51200      0.128872
   0.51300      0.130569
   0.51345      0.133946
   0.51354      0.136063