Folder: Report-results/4. Notched tensile specimen/Matrix/h = 1mm (part 2)

File: Stress-1.txt
         0		0
   0.10000E-02  0.405751E+007
   0.20000E-02  0.811502E+007
   0.30000E-02  0.121725E+008
   0.40000E-02  0.162300E+008
   0.50000E-02  0.202876E+008
   0.60000E-02  0.243451E+008
   0.70000E-02  0.284026E+008
   0.80000E-02  0.324601E+008
   0.90000E-02  0.365176E+008
   0.10000E-01  0.405751E+008
   0.11000E-01  0.446326E+008
   0.12000E-01  0.486901E+008
   0.13000E-01  0.527476E+008
   0.14000E-01  0.568052E+008
   0.15000E-01  0.608627E+008
   0.16000E-01  0.649202E+008
   0.17000E-01  0.689777E+008
   0.18000E-01  0.730352E+008
   0.19000E-01  0.770927E+008
   0.20000E-01  0.811502E+008

   0.21000E-01  0.852077E+008
   0.22000E-01  0.892653E+008
   0.23000E-01  0.933228E+008
   0.24000E-01  0.973803E+008
   0.25000E-01  0.101438E+009
   0.26000E-01  0.105495E+009
   0.27000E-01  0.109553E+009
   0.28000E-01  0.113610E+009
   0.29000E-01  0.117668E+009
   0.30000E-01  0.121725E+009
   0.31000E-01  0.125783E+009
   0.32000E-01  0.129840E+009
   0.33000E-01  0.133898E+009
   0.34000E-01  0.137955E+009
   0.35000E-01  0.142013E+009
   0.36000E-01  0.146070E+009
   0.37000E-01  0.150128E+009
   0.38000E-01  0.154185E+009
   0.39000E-01  0.158243E+009
   0.40000E-01  0.162300E+009

   0.41000E-01  0.166358E+009
   0.42000E-01  0.170415E+009
   0.43000E-01  0.174473E+009
   0.44000E-01  0.178531E+009
   0.45000E-01  0.182588E+009
   0.46000E-01  0.186646E+009
   0.47000E-01  0.190703E+009
   0.48000E-01  0.194761E+009
   0.49000E-01  0.198818E+009
   0.50000E-01  0.202876E+009
   0.51000E-01  0.206933E+009
   0.52000E-01  0.210991E+009
   0.53000E-01  0.215048E+009
   0.54000E-01  0.219106E+009
   0.55000E-01  0.223163E+009
   0.56000E-01  0.227221E+009
   0.57000E-01  0.231278E+009
   0.58000E-01  0.235336E+009
   0.59000E-01  0.239393E+009
   0.60000E-01  0.243451E+009

   0.61000E-01  0.247508E+009
   0.62000E-01  0.251566E+009
   0.63000E-01  0.255623E+009
   0.64000E-01  0.259681E+009
   0.65000E-01  0.263738E+009
   0.66000E-01  0.267796E+009
   0.67000E-01  0.271853E+009
   0.68000E-01  0.275911E+009
   0.69000E-01  0.279968E+009
   0.70000E-01  0.284026E+009
   0.71000E-01  0.288083E+009
   0.72000E-01  0.292141E+009
   0.73000E-01  0.296198E+009
   0.74000E-01  0.300256E+009
   0.75000E-01  0.304313E+009
   0.76000E-01  0.308371E+009
   0.77000E-01  0.312428E+009
   0.78000E-01  0.316486E+009
   0.79000E-01  0.320543E+009
   0.80000E-01  0.324601E+009

   0.81000E-01  0.328658E+009
   0.82000E-01  0.332716E+009
   0.83000E-01  0.336773E+009
   0.84000E-01  0.340831E+009
   0.85000E-01  0.344888E+009
   0.86000E-01  0.348946E+009
   0.87000E-01  0.353003E+009
   0.88000E-01  0.357061E+009
   0.89000E-01  0.361119E+009
   0.90000E-01  0.365176E+009
   0.91000E-01  0.369234E+009
   0.92000E-01  0.373291E+009
   0.93000E-01  0.377349E+009
   0.94000E-01  0.381406E+009
   0.95000E-01  0.385464E+009
   0.96000E-01  0.389521E+009
   0.97000E-01  0.393579E+009
   0.98000E-01  0.397636E+009
   0.99000E-01  0.401694E+009
   0.10000      0.405751E+009

   0.10100      0.409809E+009
   0.10200      0.413866E+009
   0.10300      0.417924E+009
   0.10400      0.421981E+009
   0.10500      0.426039E+009
   0.10600      0.430096E+009
   0.10700      0.434154E+009
   0.10800      0.438211E+009
   0.10900      0.442269E+009
   0.11000      0.446326E+009
   0.11100      0.450384E+009
   0.11200      0.454441E+009
   0.11300      0.458499E+009
   0.11400      0.462556E+009
   0.11500      0.466614E+009
   0.11600      0.470671E+009
   0.11700      0.474729E+009
   0.11800      0.478786E+009
   0.11900      0.482844E+009
   0.12000      0.486901E+009

   0.12100      0.490959E+009
   0.12200      0.495016E+009
   0.12300      0.499074E+009
   0.12400      0.503131E+009
   0.12500      0.507189E+009
   0.12600      0.511246E+009
   0.12700      0.515304E+009
   0.12800      0.519361E+009
   0.12900      0.523419E+009
   0.13000      0.527476E+009
   0.13100      0.531534E+009
   0.13200      0.535592E+009
   0.13300      0.539649E+009
   0.13400      0.543707E+009
   0.13500      0.547764E+009
   0.13600      0.551822E+009
   0.13700      0.555879E+009
   0.13800      0.559937E+009
   0.13900      0.563994E+009
   0.14000      0.568052E+009

   0.14100      0.572109E+009
   0.14200      0.576167E+009
   0.14300      0.580224E+009
   0.14400      0.584282E+009
   0.14500      0.588339E+009
   0.14600      0.592397E+009
   0.14700      0.596454E+009
   0.14800      0.600512E+009
   0.14900      0.604569E+009
   0.15000      0.608627E+009
   0.15100      0.612684E+009
   0.15200      0.616742E+009
   0.15300      0.620799E+009
   0.15400      0.624857E+009
   0.15500      0.628914E+009
   0.15600      0.632972E+009
   0.15700      0.637029E+009
   0.15800      0.641087E+009
   0.15900      0.645144E+009
   0.16000      0.649202E+009

   0.16100      0.653259E+009
   0.16200      0.657317E+009
   0.16300      0.661374E+009
   0.16400      0.665432E+009
   0.16500      0.669489E+009
   0.16600      0.673547E+009
   0.16700      0.677604E+009
   0.16800      0.681662E+009
   0.16900      0.685719E+009
   0.17000      0.689777E+009
   0.17100      0.693834E+009
   0.17200      0.697892E+009
   0.17300      0.701950E+009
   0.17400      0.706007E+009
   0.17500      0.710065E+009
   0.17600      0.714122E+009
   0.17700      0.718180E+009
   0.17800      0.722237E+009
   0.17900      0.726295E+009
   0.18000      0.730352E+009

   0.18100      0.734410E+009
   0.18200      0.738467E+009
   0.18300      0.742525E+009
   0.18400      0.746582E+009
   0.18500      0.750640E+009
   0.18600      0.754697E+009
   0.18700      0.758755E+009
   0.18800      0.762812E+009
   0.18900      0.766870E+009
   0.19000      0.770927E+009
   0.19100      0.771919E+009
   0.19200      0.771510E+009
   0.19300      0.771101E+009
   0.19400      0.770692E+009
   0.19500      0.770283E+009
   0.19600      0.769875E+009
   0.19700      0.769466E+009
   0.19800      0.769058E+009
   0.19900      0.768651E+009
   0.20000      0.768243E+009

   0.20100      0.767836E+009
   0.20200      0.767234E+009
   0.20300      0.766607E+009
   0.20400      0.765981E+009
   0.20500      0.765362E+009
   0.20600      0.764743E+009
   0.20700      0.764123E+009
   0.20800      0.763505E+009
   0.20900      0.762886E+009
   0.21000      0.762269E+009
   0.21100      0.761652E+009
   0.21200      0.761035E+009
   0.21300      0.760419E+009
   0.21400      0.759803E+009
   0.21500      0.759188E+009
   0.21600      0.758573E+009
   0.21700      0.757959E+009
   0.21800      0.757345E+009
   0.21900      0.756732E+009
   0.22000      0.756119E+009

   0.22100      0.755507E+009
   0.22200      0.754895E+009
   0.22300      0.754284E+009
   0.22400      0.753673E+009
   0.22500      0.753063E+009
   0.22600      0.752453E+009
   0.22700      0.751844E+009
   0.22800      0.751235E+009
   0.22900      0.750627E+009
   0.23000      0.750019E+009
   0.23100      0.749412E+009
   0.23200      0.748805E+009
   0.23300      0.748199E+009
   0.23400      0.747593E+009
   0.23500      0.746988E+009
   0.23600      0.746383E+009
   0.23700      0.745779E+009
   0.23800      0.745175E+009
   0.23900      0.744572E+009
   0.24000      0.743969E+009

   0.24100      0.743367E+009
   0.24200      0.742765E+009
   0.24300      0.742164E+009
[...]
   0.39400      0.609027E+009
   0.39500      0.607542E+009
   0.39600      0.606006E+009
   0.39700      0.604480E+009
   0.39800      0.602957E+009
   0.39900      0.601443E+009
   0.40000      0.599931E+009

   0.40100      0.598423E+009
   0.40200      0.596915E+009
   0.40300      0.595417E+009
   0.40400      0.593922E+009
   0.40500      0.592432E+009
   0.40600      0.590947E+009
   0.40700      0.589468E+009
   0.40800      0.587993E+009
   0.40900      0.586524E+009
   0.41000      0.585060E+009
   0.41100      0.583601E+009
   0.41200      0.582144E+009
   0.41300      0.580675E+009
   0.41400      0.579154E+009
   0.41500      0.577643E+009
   0.41600      0.576130E+009
   0.41700      0.574628E+009
   0.41800      0.573069E+009
   0.41900      0.571446E+009
   0.42000      0.569853E+009

   0.42100      0.568259E+009
   0.42200      0.566673E+009
   0.42300      0.565083E+009
   0.42400      0.563498E+009
   0.42500      0.561922E+009
   0.42600      0.560344E+009
   0.42700      0.558753E+009
   0.42800      0.557166E+009
   0.42900      0.555584E+009
   0.43000      0.554010E+009
   0.43100      0.552392E+009
   0.43200      0.550642E+009
   0.43300      0.548808E+009
   0.43400      0.547008E+009
   0.43500      0.545210E+009
   0.43600      0.543433E+009
   0.43700      0.541660E+009
   0.43800      0.539900E+009
   0.43900      0.538146E+009
   0.44000      0.536403E+009

   0.44100      0.534669E+009
   0.44200      0.532944E+009
   0.44300      0.531228E+009
   0.44400      0.529496E+009
   0.44500      0.527720E+009
   0.44600      0.525960E+009
   0.44700      0.524138E+009
   0.44800      0.522264E+009
   0.44900      0.520427E+009
   0.45000      0.518596E+009
   0.45100      0.516782E+009
   0.45200      0.514973E+009
   0.45300      0.513168E+009
   0.45400      0.511369E+009
   0.45500      0.509568E+009
   0.45600      0.507712E+009
   0.45700      0.505703E+009
   0.45800      0.503644E+009
   0.45900      0.501647E+009
   0.46000      0.499660E+009

   0.46100      0.497689E+009
   0.46200      0.495731E+009
   0.46300      0.493788E+009
   0.46400      0.491854E+009
   0.46500      0.489931E+009
   0.46600      0.487976E+009
   0.46700      0.485961E+009
   0.46800      0.483920E+009
   0.46900      0.481892E+009
   0.47000      0.479872E+009
   0.47100      0.477880E+009
   0.47200      0.475899E+009
   0.47300      0.473927E+009
   0.47400      0.471941E+009
   0.47500      0.469802E+009
   0.47600      0.467565E+009
   0.47700      0.465428E+009
   0.47800      0.463286E+009
   0.47900      0.461185E+009
   0.48000      0.459097E+009

   0.48100      0.457022E+009
   0.48200      0.454922E+009
   0.48300      0.452732E+009
   0.48400      0.450542E+009
   0.48500      0.448388E+009
   0.48600      0.446261E+009
   0.48700      0.444156E+009
   0.48800      0.442038E+009
   0.48900      0.439780E+009
   0.49000      0.437444E+009
   0.49100      0.435195E+009
   0.49200      0.432974E+009
   0.49300      0.430776E+009
   0.49400      0.428569E+009
   0.49500      0.426298E+009
   0.49600      0.423993E+009
   0.49700      0.421759E+009
   0.49800      0.419547E+009
   0.49900      0.417308E+009
   0.50000      0.414950E+009

   0.50100      0.412557E+009
   0.50200      0.410245E+009
   0.50300      0.407966E+009
   0.50400      0.405634E+009
   0.50500      0.403241E+009
   0.50600      0.400915E+009
   0.50700      0.398604E+009
   0.50800      0.396180E+009
   0.50900      0.393665E+009
   0.51000      0.391227E+009
   0.51100      0.388734E+009
   0.51200      0.386199E+009
   0.51300      0.383279E+009
   0.51345      0.377822E+009
   0.51354      0.374409E+009

File: Stress-2.txt
          0		0
   0.10000E-02  0.198610E+007
   0.20000E-02  0.397219E+007
   0.30000E-02  0.595828E+007
   0.40000E-02  0.794438E+007
   0.50000E-02  0.993048E+007
   0.60000E-02  0.119166E+008
   0.70000E-02  0.139027E+008
   0.80000E-02  0.158888E+008
   0.90000E-02  0.178749E+008
   0.10000E-01  0.198610E+008
   0.11000E-01  0.218470E+008
   0.12000E-01  0.238331E+008
   0.13000E-01  0.258192E+008
   0.14000E-01  0.278053E+008
   0.15000E-01  0.297914E+008
   0.16000E-01  0.317775E+008
   0.17000E-01  0.337636E+008
   0.18000E-01  0.357497E+008
   0.19000E-01  0.377358E+008
   0.20000E-01  0.397219E+008

   0.21000E-01  0.417080E+008
   0.22000E-01  0.436941E+008
   0.23000E-01  0.456802E+008
   0.24000E-01  0.476663E+008
   0.25000E-01  0.496524E+008
   0.26000E-01  0.516385E+008
   0.27000E-01  0.536246E+008
   0.28000E-01  0.556107E+008
   0.29000E-01  0.575968E+008
   0.30000E-01  0.595829E+008
   0.31000E-01  0.615689E+008
   0.32000E-01  0.635550E+008
   0.33000E-01  0.655411E+008
   0.34000E-01  0.675272E+008
   0.35000E-01  0.695133E+008
   0.36000E-01  0.714994E+008
   0.37000E-01  0.734855E+008
   0.38000E-01  0.754716E+008
   0.39000E-01  0.774577E+008
   0.40000E-01  0.794438E+008

   0.41000E-01  0.814299E+008
   0.42000E-01  0.834160E+008
   0.43000E-01  0.854021E+008
   0.44000E-01  0.873882E+008
   0.45000E-01  0.893743E+008
   0.46000E-01  0.913604E+008
   0.47000E-01  0.933465E+008
   0.48000E-01  0.953326E+008
   0.49000E-01  0.973187E+008
   0.50000E-01  0.993048E+008
   0.51000E-01  0.101291E+009
   0.52000E-01  0.103277E+009
   0.53000E-01  0.105263E+009
   0.54000E-01  0.107249E+009
   0.55000E-01  0.109235E+009
   0.56000E-01  0.111221E+009
   0.57000E-01  0.113207E+009
   0.58000E-01  0.115194E+009
   0.59000E-01  0.117180E+009
   0.60000E-01  0.119166E+009

   0.61000E-01  0.121152E+009
   0.62000E-01  0.123138E+009
   0.63000E-01  0.125124E+009
   0.64000E-01  0.127110E+009
   0.65000E-01  0.129096E+009
   0.66000E-01  0.131082E+009
   0.67000E-01  0.133068E+009
   0.68000E-01  0.135054E+009
   0.69000E-01  0.137041E+009
   0.70000E-01  0.139027E+009
   0.71000E-01  0.141013E+009
   0.72000E-01  0.142999E+009
   0.73000E-01  0.144985E+009
   0.74000E-01  0.146971E+009
   0.75000E-01  0.148957E+009
   0.76000E-01  0.150943E+009
   0.77000E-01  0.152929E+009
   0.78000E-01  0.154915E+009
   0.79000E-01  0.156902E+009
   0.80000E-01  0.158888E+009

   0.81000E-01  0.160874E+009
   0.82000E-01  0.162860E+009
   0.83000E-01  0.164846E+009
   0.84000E-01  0.166832E+009
   0.85000E-01  0.168818E+009
   0.86000E-01  0.170804E+009
   0.87000E-01  0.172790E+009
   0.88000E-01  0.174776E+009
   0.89000E-01  0.176762E+009
   0.90000E-01  0.178749E+009
   0.91000E-01  0.180735E+009
   0.92000E-01  0.182721E+009
   0.93000E-01  0.184707E+009
   0.94000E-01  0.186693E+009
   0.95000E-01  0.188679E+009
   0.96000E-01  0.190665E+009
   0.97000E-01  0.192651E+009
   0.98000E-01  0.194637E+009
   0.99000E-01  0.196623E+009
   0.10000      0.198610E+009

   0.10100      0.200596E+009
   0.10200      0.202582E+009
   0.10300      0.204568E+009
   0.10400      0.206554E+009
   0.10500      0.208540E+009
   0.10600      0.210526E+009
   0.10700      0.212512E+009
   0.10800      0.214498E+009
   0.10900      0.216484E+009
   0.11000      0.218470E+009
   0.11100      0.220457E+009
   0.11200      0.222443E+009
   0.11300      0.224429E+009
   0.11400      0.226415E+009
   0.11500      0.228401E+009
   0.11600      0.230387E+009
   0.11700      0.232373E+009
   0.11800      0.234359E+009
   0.11900      0.236345E+009
   0.12000      0.238331E+009

   0.12100      0.240317E+009
   0.12200      0.242304E+009
   0.12300      0.244290E+009
   0.12400      0.246276E+009
   0.12500      0.248262E+009
   0.12600      0.250248E+009
   0.12700      0.252234E+009
   0.12800      0.254220E+009
   0.12900      0.256206E+009
   0.13000      0.258192E+009
   0.13100      0.260178E+009
   0.13200      0.262165E+009
   0.13300      0.264151E+009
   0.13400      0.266137E+009
   0.13500      0.268123E+009
   0.13600      0.270109E+009
   0.13700      0.272095E+009
   0.13800      0.274081E+009
   0.13900      0.276067E+009
   0.14000      0.278053E+009

   0.14100      0.280039E+009
   0.14200      0.282026E+009
   0.14300      0.284012E+009
   0.14400      0.285998E+009
   0.14500      0.287984E+009
   0.14600      0.289970E+009
   0.14700      0.291956E+009
   0.14800      0.293942E+009
   0.14900      0.295928E+009
   0.15000      0.297914E+009
   0.15100      0.299900E+009
   0.15200      0.301886E+009
   0.15300      0.303873E+009
   0.15400      0.305859E+009
   0.15500      0.307845E+009
   0.15600      0.309831E+009
   0.15700      0.311817E+009
   0.15800      0.313803E+009
   0.15900      0.315789E+009
   0.16000      0.317775E+009

   0.16100      0.319761E+009
   0.16200      0.321747E+009
   0.16300      0.323733E+009
   0.16400      0.325720E+009
   0.16500      0.327706E+009
   0.16600      0.329692E+009
   0.16700      0.331678E+009
   0.16800      0.333664E+009
   0.16900      0.335650E+009
   0.17000      0.337636E+009
   0.17100      0.339622E+009
   0.17200      0.341608E+009
   0.17300      0.343594E+009
   0.17400      0.345581E+009
   0.17500      0.347567E+009
   0.17600      0.349553E+009
   0.17700      0.351539E+009
   0.17800      0.353525E+009
   0.17900      0.355511E+009
   0.18000      0.357497E+009

   0.18100      0.359483E+009
   0.18200      0.361469E+009
   0.18300      0.363455E+009
   0.18400      0.365441E+009
   0.18500      0.367428E+009
   0.18600      0.369414E+009
   0.18700      0.371400E+009
   0.18800      0.373386E+009
   0.18900      0.375372E+009
   0.19000      0.377358E+009
   0.19100      0.379688E+009
   0.19200      0.382175E+009
   0.19300      0.384662E+009
   0.19400      0.387150E+009
   0.19500      0.389637E+009
   0.19600      0.392124E+009
   0.19700      0.394611E+009
   0.19800      0.397098E+009
   0.19900      0.399585E+009
   0.20000      0.402072E+009

   0.20100      0.404559E+009
   0.20200      0.408055E+009
   0.20300      0.411590E+009
   0.20400      0.415157E+009
   0.20500      0.418700E+009
   0.20600      0.422246E+009
   0.20700      0.425792E+009
   0.20800      0.429339E+009
   0.20900      0.432885E+009
   0.21000      0.436430E+009
   0.21100      0.439976E+009
   0.21200      0.443521E+009
   0.21300      0.447066E+009
   0.21400      0.450610E+009
   0.21500      0.454155E+009
   0.21600      0.457699E+009
   0.21700      0.461242E+009
   0.21800      0.464786E+009
   0.21900      0.468329E+009
   0.22000      0.471872E+009

   0.22100      0.475415E+009
   0.22200      0.478958E+009
   0.22300      0.482500E+009
   0.22400      0.486042E+009
   0.22500      0.489584E+009
   0.22600      0.493125E+009
   0.22700      0.496666E+009
   0.22800      0.500207E+009
   0.22900      0.503748E+009
   0.23000      0.507289E+009
   0.23100      0.510829E+009
   0.23200      0.514369E+009
   0.23300      0.517909E+009
   0.23400      0.521449E+009
   0.23500      0.524988E+009
   0.23600      0.528527E+009
   0.23700      0.532066E+009
   0.23800      0.535605E+009
   0.23900      0.539143E+009
   0.24000      0.542681E+009

   0.24100      0.546219E+009
   0.24200      0.549757E+009
   0.24300      0.553295E+009
[...]
   0.39400      0.693957E+009
   0.39500      0.692302E+009
   0.39600      0.690618E+009
   0.39700      0.688935E+009
   0.39800      0.687260E+009
   0.39900      0.685585E+009
   0.40000      0.683913E+009

   0.40100      0.682246E+009
   0.40200      0.680574E+009
   0.40300      0.678930E+009
   0.40400      0.677278E+009
   0.40500      0.675630E+009
   0.40600      0.673986E+009
   0.40700      0.672350E+009
   0.40800      0.670718E+009
   0.40900      0.669092E+009
   0.41000      0.667471E+009
   0.41100      0.665855E+009
   0.41200      0.664240E+009
   0.41300      0.662602E+009
   0.41400      0.660877E+009
   0.41500      0.659210E+009
   0.41600      0.657516E+009
   0.41700      0.655833E+009
   0.41800      0.654063E+009
   0.41900      0.652193E+009
   0.42000      0.650393E+009

   0.42100      0.648583E+009
   0.42200      0.646773E+009
   0.42300      0.644948E+009
   0.42400      0.643147E+009
   0.42500      0.641351E+009
   0.42600      0.639547E+009
   0.42700      0.637717E+009
   0.42800      0.635912E+009
   0.42900      0.634107E+009
   0.43000      0.632308E+009
   0.43100      0.630455E+009
   0.43200      0.628430E+009
   0.43300      0.626243E+009
   0.43400      0.624138E+009
   0.43500      0.622018E+009
   0.43600      0.619934E+009
   0.43700      0.617848E+009
   0.43800      0.615785E+009
   0.43900      0.613726E+009
   0.44000      0.611683E+009

   0.44100      0.609649E+009
   0.44200      0.607627E+009
   0.44300      0.605616E+009
   0.44400      0.603589E+009
   0.44500      0.601494E+009
   0.44600      0.599416E+009
   0.44700      0.597262E+009
   0.44800      0.595028E+009
   0.44900      0.592843E+009
   0.45000      0.590665E+009
   0.45100      0.588514E+009
   0.45200      0.586367E+009
   0.45300      0.584227E+009
   0.45400      0.582093E+009
   0.45500      0.579955E+009
   0.45600      0.577732E+009
   0.45700      0.575317E+009
   0.45800      0.572824E+009
   0.45900      0.570419E+009
   0.46000      0.568015E+009

   0.46100      0.565641E+009
   0.46200      0.563283E+009
   0.46300      0.560945E+009
   0.46400      0.558616E+009
   0.46500      0.556302E+009
   0.46600      0.553945E+009
   0.46700      0.551500E+009
   0.46800      0.549022E+009
   0.46900      0.546567E+009
   0.47000      0.544116E+009
   0.47100      0.541705E+009
   0.47200      0.539308E+009
   0.47300      0.536919E+009
   0.47400      0.534512E+009
   0.47500      0.531901E+009
   0.47600      0.529144E+009
   0.47700      0.526537E+009
   0.47800      0.523913E+009
   0.47900      0.521347E+009
   0.48000      0.518797E+009

   0.48100      0.516265E+009
   0.48200      0.513698E+009
   0.48300      0.511007E+009
   0.48400      0.508317E+009
   0.48500      0.505675E+009
   0.48600      0.503068E+009
   0.48700      0.500492E+009
   0.48800      0.497898E+009
   0.48900      0.495115E+009
   0.49000      0.492215E+009
   0.49100      0.489442E+009
   0.49200      0.486703E+009
   0.49300      0.483997E+009
   0.49400      0.481278E+009
   0.49500      0.478474E+009
   0.49600      0.475615E+009
   0.49700      0.472858E+009
   0.49800      0.470129E+009
   0.49900      0.467364E+009
   0.50000      0.464436E+009

   0.50100      0.461455E+009
   0.50200      0.458590E+009
   0.50300      0.455766E+009
   0.50400      0.452872E+009
   0.50500      0.449890E+009
   0.50600      0.447002E+009
   0.50700      0.444133E+009
   0.50800      0.441112E+009
   0.50900      0.437959E+009
   0.51000      0.434914E+009
   0.51100      0.431796E+009
   0.51200      0.428614E+009
   0.51300      0.424901E+009
   0.51345      0.417611E+009
   0.51354      0.413106E+009