Folder: Report-results/4. Notched tensile specimen/Matrix/h=0.25mm (part 2)

File: Stress-1.txt
       0		0
   0.10000E-02  0.507809E+007
   0.20000E-02  0.101562E+008
   0.30000E-02  0.152343E+008
   0.40000E-02  0.203124E+008
   0.50000E-02  0.253905E+008
   0.60000E-02  0.304686E+008
   0.70000E-02  0.355467E+008
   0.80000E-02  0.406247E+008
   0.90000E-02  0.457028E+008
   0.10000E-01  0.507809E+008
   0.11000E-01  0.558590E+008
   0.12000E-01  0.609371E+008
   0.13000E-01  0.660152E+008
   0.14000E-01  0.710933E+008
   0.15000E-01  0.761714E+008
   0.16000E-01  0.812495E+008
   0.17000E-01  0.863276E+008
   0.18000E-01  0.914057E+008
   0.19000E-01  0.964838E+008
   0.20000E-01  0.101562E+009

   0.21000E-01  0.106640E+009
   0.22000E-01  0.111718E+009
   0.23000E-01  0.116796E+009
   0.24000E-01  0.121874E+009
   0.25000E-01  0.126952E+009
   0.26000E-01  0.132030E+009
   0.27000E-01  0.137109E+009
   0.28000E-01  0.142187E+009
   0.29000E-01  0.147265E+009
   0.30000E-01  0.152343E+009
   0.31000E-01  0.157421E+009
   0.32000E-01  0.162499E+009
   0.33000E-01  0.167577E+009
   0.34000E-01  0.172655E+009
   0.35000E-01  0.177733E+009
   0.36000E-01  0.182811E+009
   0.37000E-01  0.187889E+009
   0.38000E-01  0.192968E+009
   0.39000E-01  0.198046E+009
   0.40000E-01  0.203124E+009

   0.41000E-01  0.208202E+009
   0.42000E-01  0.213280E+009
   0.43000E-01  0.218358E+009
   0.44000E-01  0.223436E+009
   0.45000E-01  0.228514E+009
   0.46000E-01  0.233592E+009
   0.47000E-01  0.238670E+009
   0.48000E-01  0.243748E+009
   0.49000E-01  0.248827E+009
   0.50000E-01  0.253905E+009
   0.51000E-01  0.258983E+009
   0.52000E-01  0.264061E+009
   0.53000E-01  0.269139E+009
   0.54000E-01  0.274217E+009
   0.55000E-01  0.279295E+009
   0.56000E-01  0.284373E+009
   0.57000E-01  0.289451E+009
   0.58000E-01  0.294529E+009
   0.59000E-01  0.299607E+009
   0.60000E-01  0.304686E+009

   0.61000E-01  0.309764E+009
   0.62000E-01  0.314842E+009
   0.63000E-01  0.319920E+009
   0.64000E-01  0.324998E+009
   0.65000E-01  0.330076E+009
   0.66000E-01  0.335154E+009
   0.67000E-01  0.340232E+009
   0.68000E-01  0.345310E+009
   0.69000E-01  0.350388E+009
   0.70000E-01  0.355467E+009
   0.71000E-01  0.360545E+009
   0.72000E-01  0.365623E+009
   0.73000E-01  0.370701E+009
   0.74000E-01  0.375779E+009
   0.75000E-01  0.380857E+009
   0.76000E-01  0.385935E+009
   0.77000E-01  0.391013E+009
   0.78000E-01  0.396091E+009
   0.79000E-01  0.401169E+009
   0.80000E-01  0.406247E+009

   0.81000E-01  0.411326E+009
   0.82000E-01  0.416404E+009
   0.83000E-01  0.421482E+009
   0.84000E-01  0.426560E+009
   0.85000E-01  0.431638E+009
   0.86000E-01  0.436716E+009
   0.87000E-01  0.441794E+009
   0.88000E-01  0.446872E+009
   0.89000E-01  0.451950E+009
   0.90000E-01  0.457028E+009
   0.91000E-01  0.462106E+009
   0.92000E-01  0.467185E+009
   0.93000E-01  0.472263E+009
   0.94000E-01  0.477341E+009
   0.95000E-01  0.482419E+009
   0.96000E-01  0.487497E+009
   0.97000E-01  0.492575E+009
   0.98000E-01  0.497653E+009
   0.99000E-01  0.502731E+009
   0.10000      0.507809E+009

   0.10100      0.512887E+009
   0.10200      0.517966E+009
   0.10300      0.523044E+009
   0.10400      0.528122E+009
   0.10500      0.533200E+009
   0.10600      0.538278E+009
   0.10700      0.543356E+009
   0.10800      0.548434E+009
   0.10900      0.553512E+009
   0.11000      0.558590E+009
   0.11100      0.563668E+009
   0.11200      0.568746E+009
   0.11300      0.573825E+009
   0.11400      0.578903E+009
   0.11500      0.583981E+009
   0.11600      0.589059E+009
   0.11700      0.594137E+009
   0.11800      0.599215E+009
   0.11900      0.604293E+009
   0.12000      0.609371E+009

   0.12100      0.614449E+009
   0.12200      0.619527E+009
   0.12300      0.624605E+009
   0.12400      0.629684E+009
   0.12500      0.634762E+009
   0.12600      0.639840E+009
   0.12700      0.644918E+009
   0.12800      0.649996E+009
   0.12900      0.655074E+009
   0.13000      0.660152E+009
   0.13100      0.665230E+009
   0.13200      0.670308E+009
   0.13300      0.675386E+009
   0.13400      0.680464E+009
   0.13500      0.685543E+009
   0.13600      0.690621E+009
   0.13700      0.695699E+009
   0.13800      0.700777E+009
   0.13900      0.705855E+009
   0.14000      0.710933E+009

   0.14100      0.716011E+009
   0.14200      0.721089E+009
   0.14300      0.726167E+009
   0.14400      0.731245E+009
   0.14500      0.736324E+009
   0.14600      0.741402E+009
   0.14700      0.746480E+009
   0.14800      0.751558E+009
   0.14900      0.756636E+009
   0.15000      0.761714E+009
   0.15100      0.766792E+009
   0.15200      0.771870E+009
   0.15300      0.772002E+009
   0.15400      0.771694E+009
   0.15500      0.771312E+009
   0.15600      0.770928E+009
   0.15700      0.770546E+009
   0.15800      0.770166E+009
   0.15900      0.769786E+009
   0.16000      0.769406E+009

   0.16100      0.769026E+009
   0.16200      0.768645E+009
   0.16300      0.768265E+009
   0.16400      0.767885E+009
   0.16500      0.767505E+009
   0.16600      0.767126E+009
   0.16700      0.766746E+009
   0.16800      0.766366E+009
   0.16900      0.765987E+009
   0.17000      0.765607E+009
   0.17100      0.765228E+009
   0.17200      0.764848E+009
   0.17300      0.764469E+009
   0.17400      0.764090E+009
   0.17500      0.763711E+009
   0.17600      0.763332E+009
   0.17700      0.762954E+009
   0.17800      0.762575E+009
   0.17900      0.762197E+009
   0.18000      0.761818E+009

   0.18100      0.761440E+009
   0.18200      0.761062E+009
   0.18300      0.760684E+009
   0.18400      0.760306E+009
   0.18500      0.759929E+009
   0.18600      0.759551E+009
   0.18700      0.759174E+009
   0.18800      0.758796E+009
   0.18900      0.758371E+009
   0.19000      0.757929E+009
   0.19100      0.757453E+009
   0.19200      0.756894E+009
   0.19300      0.756322E+009
   0.19400      0.755753E+009
   0.19500      0.755188E+009
   0.19600      0.754624E+009
   0.19700      0.754060E+009
   0.19800      0.753496E+009
   0.19900      0.752932E+009
   0.20000      0.752369E+009

   0.20100      0.751806E+009
   0.20200      0.751244E+009
   0.20300      0.750681E+009
   0.20400      0.750120E+009
   0.20500      0.749558E+009
   0.20600      0.748997E+009
   0.20700      0.748436E+009
   0.20800      0.747875E+009
   0.20900      0.747315E+009
   0.21000      0.746755E+009
   0.21100      0.746196E+009
   0.21200      0.745637E+009
   0.21300      0.745078E+009
   0.21400      0.744519E+009
   0.21500      0.743909E+009
   0.21600      0.743096E+009
   0.21700      0.742285E+009
   0.21800      0.741490E+009
   0.21900      0.740694E+009
   0.22000      0.739900E+009

   0.22100      0.739105E+009
   0.22200      0.738312E+009
   0.22300      0.737520E+009
   0.22400      0.736729E+009
   0.22500      0.735940E+009
   0.22600      0.735151E+009
   0.22700      0.734363E+009
   0.22800      0.733576E+009
   0.22900      0.732790E+009
   0.23000      0.732005E+009
   0.23100      0.731221E+009
   0.23200      0.730438E+009
   0.23300      0.729656E+009
   0.23400      0.728875E+009
   0.23500      0.728095E+009
   0.23600      0.727280E+009
   0.23700      0.726422E+009
   0.23800      0.725490E+009
   0.23900      0.724553E+009
   0.24000      0.723621E+009

   0.24100      0.722691E+009
   0.24200      0.721762E+009
   0.24300      0.720835E+009
[...]
   0.34100      0.583000E+009
   0.34200      0.580996E+009
   0.34300      0.579005E+009
   0.34400      0.577024E+009
   0.34500      0.575053E+009
   0.34600      0.573089E+009
   0.34700      0.571044E+009
   0.34800      0.568970E+009
   0.34900      0.566909E+009
   0.35000      0.564863E+009
   0.35100      0.562828E+009
   0.35200      0.560804E+009
   0.35300      0.558684E+009
   0.35400      0.556491E+009
   0.35500      0.554309E+009
   0.35600      0.552147E+009
   0.35700      0.549999E+009
   0.35800      0.547865E+009
   0.35900      0.545692E+009
   0.36000      0.543455E+009

   0.36100      0.541225E+009
   0.36200      0.539015E+009
   0.36300      0.536821E+009
   0.36400      0.534633E+009
   0.36500      0.532289E+009
   0.36600      0.529933E+009
   0.36700      0.527609E+009
   0.36800      0.525304E+009
   0.36900      0.523017E+009
   0.37000      0.520663E+009
   0.37100      0.518273E+009
   0.37200      0.515901E+009
   0.37300      0.513553E+009
   0.37400      0.511220E+009
   0.37500      0.508736E+009
   0.37600      0.506234E+009
   0.37700      0.503768E+009
   0.37800      0.501325E+009
   0.37900      0.498873E+009
   0.38000      0.496343E+009

   0.38100      0.493822E+009
   0.38200      0.491332E+009
   0.38300      0.488849E+009
   0.38400      0.486218E+009
   0.38500      0.483585E+009
   0.38600      0.480995E+009
   0.38700      0.478429E+009
   0.38800      0.475777E+009
   0.38900      0.473120E+009
   0.39000      0.470500E+009
   0.39100      0.467864E+009
   0.39200      0.465105E+009
   0.39300      0.462357E+009
   0.39400      0.459656E+009
   0.39500      0.456915E+009
   0.39600      0.454136E+009
   0.39700      0.451388E+009
   0.39800      0.448631E+009
   0.39900      0.445754E+009
   0.40000      0.442895E+009

   0.40100      0.440087E+009
   0.40200      0.437197E+009
   0.40300      0.434316E+009
   0.40400      0.431485E+009
   0.40500      0.428501E+009
   0.40600      0.425524E+009
   0.40700      0.422607E+009
   0.40800      0.419608E+009
   0.40900      0.416632E+009
   0.41000      0.413644E+009
   0.41100      0.410562E+009
   0.41200      0.407519E+009
   0.41300      0.404447E+009
   0.41400      0.401373E+009
   0.41500      0.398301E+009
   0.41600      0.395127E+009
   0.41700      0.392001E+009
   0.41800      0.388823E+009
   0.41900      0.385674E+009
   0.42000      0.382459E+009

   0.42100      0.379219E+009
   0.42200      0.375986E+009
   0.42300      0.372747E+009
   0.42400      0.369479E+009
   0.42500      0.366161E+009
   0.42600      0.362849E+009
   0.42700      0.359544E+009
   0.42800      0.356183E+009
   0.42900      0.352813E+009
   0.43000      0.349419E+009
   0.43100      0.346080E+009
   0.43200      0.342602E+009
   0.43300      0.339150E+009
   0.43400      0.335740E+009
   0.43500      0.332231E+009
   0.43600      0.328737E+009
   0.43700      0.325272E+009
   0.43800      0.321715E+009
   0.43900      0.318165E+009
   0.44000      0.314694E+009

   0.44100      0.311066E+009
   0.44200      0.307466E+009
   0.44300      0.303868E+009
   0.44400      0.300254E+009
   0.44500      0.296723E+009
   0.44600      0.292944E+009
   0.44700      0.289315E+009
   0.44800      0.285676E+009
   0.44900      0.282009E+009
   0.45000      0.278278E+009
   0.45100      0.274698E+009
   0.45200      0.270848E+009
   0.45300      0.266926E+009
   0.45400      0.263368E+009
   0.45500      0.259515E+009
   0.45600      0.255746E+009
   0.45700      0.251899E+009
   0.45800      0.247813E+009
   0.45900      0.243991E+009
   0.46000      0.239679E+009

   0.46100      0.234756E+009
   0.46145      0.223575E+009

File: Stress-2.txt
          0		0
   0.10000E-02  0.352449E+007
   0.20000E-02  0.704899E+007
   0.30000E-02  0.105735E+008
   0.40000E-02  0.140980E+008
   0.50000E-02  0.176225E+008
   0.60000E-02  0.211470E+008
   0.70000E-02  0.246715E+008
   0.80000E-02  0.281960E+008
   0.90000E-02  0.317205E+008
   0.10000E-01  0.352449E+008
   0.11000E-01  0.387694E+008
   0.12000E-01  0.422939E+008
   0.13000E-01  0.458184E+008
   0.14000E-01  0.493429E+008
   0.15000E-01  0.528674E+008
   0.16000E-01  0.563919E+008
   0.17000E-01  0.599164E+008
   0.18000E-01  0.634409E+008
   0.19000E-01  0.669654E+008
   0.20000E-01  0.704899E+008

   0.21000E-01  0.740144E+008
   0.22000E-01  0.775389E+008
   0.23000E-01  0.810634E+008
   0.24000E-01  0.845879E+008
   0.25000E-01  0.881124E+008
   0.26000E-01  0.916369E+008
   0.27000E-01  0.951614E+008
   0.28000E-01  0.986858E+008
   0.29000E-01  0.102210E+009
   0.30000E-01  0.105735E+009
   0.31000E-01  0.109259E+009
   0.32000E-01  0.112784E+009
   0.33000E-01  0.116308E+009
   0.34000E-01  0.119833E+009
   0.35000E-01  0.123357E+009
   0.36000E-01  0.126882E+009
   0.37000E-01  0.130406E+009
   0.38000E-01  0.133931E+009
   0.39000E-01  0.137455E+009
   0.40000E-01  0.140980E+009

   0.41000E-01  0.144504E+009
   0.42000E-01  0.148029E+009
   0.43000E-01  0.151553E+009
   0.44000E-01  0.155078E+009
   0.45000E-01  0.158602E+009
   0.46000E-01  0.162127E+009
   0.47000E-01  0.165651E+009
   0.48000E-01  0.169176E+009
   0.49000E-01  0.172700E+009
   0.50000E-01  0.176225E+009
   0.51000E-01  0.179749E+009
   0.52000E-01  0.183274E+009
   0.53000E-01  0.186798E+009
   0.54000E-01  0.190323E+009
   0.55000E-01  0.193847E+009
   0.56000E-01  0.197372E+009
   0.57000E-01  0.200896E+009
   0.58000E-01  0.204421E+009
   0.59000E-01  0.207945E+009
   0.60000E-01  0.211470E+009

   0.61000E-01  0.214994E+009
   0.62000E-01  0.218519E+009
   0.63000E-01  0.222043E+009
   0.64000E-01  0.225568E+009
   0.65000E-01  0.229092E+009
   0.66000E-01  0.232617E+009
   0.67000E-01  0.236141E+009
   0.68000E-01  0.239666E+009
   0.69000E-01  0.243190E+009
   0.70000E-01  0.246715E+009
   0.71000E-01  0.250239E+009
   0.72000E-01  0.253764E+009
   0.73000E-01  0.257288E+009
   0.74000E-01  0.260813E+009
   0.75000E-01  0.264337E+009
   0.76000E-01  0.267862E+009
   0.77000E-01  0.271386E+009
   0.78000E-01  0.274911E+009
   0.79000E-01  0.278435E+009
   0.80000E-01  0.281960E+009

   0.81000E-01  0.285484E+009
   0.82000E-01  0.289009E+009
   0.83000E-01  0.292533E+009
   0.84000E-01  0.296058E+009
   0.85000E-01  0.299582E+009
   0.86000E-01  0.303107E+009
   0.87000E-01  0.306631E+009
   0.88000E-01  0.310156E+009
   0.89000E-01  0.313680E+009
   0.90000E-01  0.317205E+009
   0.91000E-01  0.320729E+009
   0.92000E-01  0.324254E+009
   0.93000E-01  0.327778E+009
   0.94000E-01  0.331302E+009
   0.95000E-01  0.334827E+009
   0.96000E-01  0.338351E+009
   0.97000E-01  0.341876E+009
   0.98000E-01  0.345400E+009
   0.99000E-01  0.348925E+009
   0.10000      0.352449E+009

   0.10100      0.355974E+009
   0.10200      0.359498E+009
   0.10300      0.363023E+009
   0.10400      0.366547E+009
   0.10500      0.370072E+009
   0.10600      0.373596E+009
   0.10700      0.377121E+009
   0.10800      0.380645E+009
   0.10900      0.384170E+009
   0.11000      0.387694E+009
   0.11100      0.391219E+009
   0.11200      0.394743E+009
   0.11300      0.398268E+009
   0.11400      0.401792E+009
   0.11500      0.405317E+009
   0.11600      0.408841E+009
   0.11700      0.412366E+009
   0.11800      0.415890E+009
   0.11900      0.419415E+009
   0.12000      0.422939E+009

   0.12100      0.426464E+009
   0.12200      0.429988E+009
   0.12300      0.433513E+009
   0.12400      0.437037E+009
   0.12500      0.440562E+009
   0.12600      0.444086E+009
   0.12700      0.447611E+009
   0.12800      0.451135E+009
   0.12900      0.454660E+009
   0.13000      0.458184E+009
   0.13100      0.461709E+009
   0.13200      0.465233E+009
   0.13300      0.468758E+009
   0.13400      0.472282E+009
   0.13500      0.475807E+009
   0.13600      0.479331E+009
   0.13700      0.482856E+009
   0.13800      0.486380E+009
   0.13900      0.489905E+009
   0.14000      0.493429E+009

   0.14100      0.496954E+009
   0.14200      0.500478E+009
   0.14300      0.504003E+009
   0.14400      0.507527E+009
   0.14500      0.511052E+009
   0.14600      0.514576E+009
   0.14700      0.518101E+009
   0.14800      0.521625E+009
   0.14900      0.525150E+009
   0.15000      0.528674E+009
   0.15100      0.532199E+009
   0.15200      0.535723E+009
   0.15300      0.539913E+009
   0.15400      0.545226E+009
   0.15500      0.551280E+009
   0.15600      0.557357E+009
   0.15700      0.563420E+009
   0.15800      0.569474E+009
   0.15900      0.575530E+009
   0.16000      0.581587E+009

   0.16100      0.587644E+009
   0.16200      0.593700E+009
   0.16300      0.599757E+009
   0.16400      0.605814E+009
   0.16500      0.611870E+009
   0.16600      0.617927E+009
   0.16700      0.623983E+009
   0.16800      0.630039E+009
   0.16900      0.636096E+009
   0.17000      0.642152E+009
   0.17100      0.648208E+009
   0.17200      0.654264E+009
   0.17300      0.660320E+009
   0.17400      0.666376E+009
   0.17500      0.672432E+009
   0.17600      0.678488E+009
   0.17700      0.684544E+009
   0.17800      0.690600E+009
   0.17900      0.696656E+009
   0.18000      0.702711E+009

   0.18100      0.708767E+009
   0.18200      0.714822E+009
   0.18300      0.720878E+009
   0.18400      0.726933E+009
   0.18500      0.732988E+009
   0.18600      0.739044E+009
   0.18700      0.745099E+009
   0.18800      0.751154E+009
   0.18900      0.758656E+009
   0.19000      0.766658E+009
   0.19100      0.772099E+009
   0.19200      0.771769E+009
   0.19300      0.771440E+009
   0.19400      0.771107E+009
   0.19500      0.770776E+009
   0.19600      0.770446E+009
   0.19700      0.770117E+009
   0.19800      0.769787E+009
   0.19900      0.769457E+009
   0.20000      0.769128E+009

   0.20100      0.768798E+009
   0.20200      0.768469E+009
   0.20300      0.768140E+009
   0.20400      0.767811E+009
   0.20500      0.767483E+009
   0.20600      0.767154E+009
   0.20700      0.766826E+009
   0.20800      0.766498E+009
   0.20900      0.766170E+009
   0.21000      0.765842E+009
   0.21100      0.765514E+009
   0.21200      0.765187E+009
   0.21300      0.764859E+009
   0.21400      0.764532E+009
   0.21500      0.764128E+009
   0.21600      0.763464E+009
   0.21700      0.762804E+009
   0.21800      0.762156E+009
   0.21900      0.761507E+009
   0.22000      0.760858E+009

   0.22100      0.760208E+009
   0.22200      0.759559E+009
   0.22300      0.758910E+009
   0.22400      0.758260E+009
   0.22500      0.757611E+009
   0.22600      0.756962E+009
   0.22700      0.756314E+009
   0.22800      0.755665E+009
   0.22900      0.755017E+009
   0.23000      0.754369E+009
   0.23100      0.753721E+009
   0.23200      0.753073E+009
   0.23300      0.752426E+009
   0.23400      0.751779E+009
   0.23500      0.751132E+009
   0.23600      0.750442E+009
   0.23700      0.749699E+009
   0.23800      0.748863E+009
   0.23900      0.748021E+009
   0.24000      0.747183E+009

   0.24100      0.746346E+009
   0.24200      0.745509E+009
   0.24300      0.744673E+009
[...]
   0.34100      0.607870E+009
   0.34200      0.605788E+009
   0.34300      0.603719E+009
   0.34400      0.601661E+009
   0.34500      0.599613E+009
   0.34600      0.597573E+009
   0.34700      0.595443E+009
   0.34800      0.593280E+009
   0.34900      0.591132E+009
   0.35000      0.588999E+009
   0.35100      0.586878E+009
   0.35200      0.584769E+009
   0.35300      0.582553E+009
   0.35400      0.580258E+009
   0.35500      0.577974E+009
   0.35600      0.575711E+009
   0.35700      0.573463E+009
   0.35800      0.571229E+009
   0.35900      0.568953E+009
   0.36000      0.566606E+009

   0.36100      0.564266E+009
   0.36200      0.561948E+009
   0.36300      0.559647E+009
   0.36400      0.557352E+009
   0.36500      0.554884E+009
   0.36600      0.552403E+009
   0.36700      0.549958E+009
   0.36800      0.547533E+009
   0.36900      0.545126E+009
   0.37000      0.542647E+009
   0.37100      0.540127E+009
   0.37200      0.537627E+009
   0.37300      0.535151E+009
   0.37400      0.532694E+009
   0.37500      0.530069E+009
   0.37600      0.527424E+009
   0.37700      0.524818E+009
   0.37800      0.522237E+009
   0.37900      0.519646E+009
   0.38000      0.516969E+009

   0.38100      0.514301E+009
   0.38200      0.511669E+009
   0.38300      0.509041E+009
   0.38400      0.506253E+009
   0.38500      0.503461E+009
   0.38600      0.500716E+009
   0.38700      0.497997E+009
   0.38800      0.495184E+009
   0.38900      0.492365E+009
   0.39000      0.489587E+009
   0.39100      0.486790E+009
   0.39200      0.483858E+009
   0.39300      0.480938E+009
   0.39400      0.478069E+009
   0.39500      0.475157E+009
   0.39600      0.472203E+009
   0.39700      0.469281E+009
   0.39800      0.466351E+009
   0.39900      0.463289E+009
   0.40000      0.460246E+009

   0.40100      0.457259E+009
   0.40200      0.454181E+009
   0.40300      0.451113E+009
   0.40400      0.448101E+009
   0.40500      0.444920E+009
   0.40600      0.441748E+009
   0.40700      0.438640E+009
   0.40800      0.435443E+009
   0.40900      0.432271E+009
   0.41000      0.429086E+009
   0.41100      0.425799E+009
   0.41200      0.422553E+009
   0.41300      0.419276E+009
   0.41400      0.415996E+009
   0.41500      0.412720E+009
   0.41600      0.409331E+009
   0.41700      0.405996E+009
   0.41800      0.402603E+009
   0.41900      0.399242E+009
   0.42000      0.395810E+009

   0.42100      0.392350E+009
   0.42200      0.388897E+009
   0.42300      0.385439E+009
   0.42400      0.381949E+009
   0.42500      0.378404E+009
   0.42600      0.374867E+009
   0.42700      0.371337E+009
   0.42800      0.367748E+009
   0.42900      0.364147E+009
   0.43000      0.360521E+009
   0.43100      0.356955E+009
   0.43200      0.353239E+009
   0.43300      0.349551E+009
   0.43400      0.345909E+009
   0.43500      0.342160E+009
   0.43600      0.338427E+009
   0.43700      0.334727E+009
   0.43800      0.330926E+009
   0.43900      0.327135E+009
   0.44000      0.323430E+009

   0.44100      0.319553E+009
   0.44200      0.315708E+009
   0.44300      0.311866E+009
   0.44400      0.308007E+009
   0.44500      0.304239E+009
   0.44600      0.300201E+009
   0.44700      0.296328E+009
   0.44800      0.292444E+009
   0.44900      0.288530E+009
   0.45000      0.284547E+009
   0.45100      0.280730E+009
   0.45200      0.276617E+009
   0.45300      0.272426E+009
   0.45400      0.268637E+009
   0.45500      0.264523E+009
   0.45600      0.260503E+009
   0.45700      0.256397E+009
   0.45800      0.252031E+009
   0.45900      0.247955E+009
   0.46000      0.243343E+009

   0.46100      0.238065E+009
   0.46145      0.225905E+009