Folder: Report-results/4. Notched tensile specimen/Matrix

File: 0.25fx.txt
	0	   0
   0.20000E-02   31.6973
   0.40000E-02   63.3947
   0.60000E-02   95.0920
   0.80000E-02   126.789
   0.10000E-01   158.487
   0.12000E-01   190.184
   0.14000E-01   221.881
   0.16000E-01   253.579
   0.18000E-01   285.276
   0.20000E-01   316.973
   0.22000E-01   348.671
   0.24000E-01   380.368
   0.26000E-01   412.065
   0.28000E-01   443.763
   0.30000E-01   475.460
   0.32000E-01   507.157
   0.34000E-01   538.855
   0.36000E-01   570.552
   0.38000E-01   602.249
   0.40000E-01   633.947
   0.42000E-01   665.644
   0.44000E-01   697.342
   0.46000E-01   729.039
   0.48000E-01   760.736
   0.50000E-01   792.434
   0.52000E-01   824.131
   0.54000E-01   855.828
   0.56000E-01   887.526
   0.58000E-01   919.223
   0.60000E-01   950.920
   0.62000E-01   982.618
   0.64000E-01   1014.31
   0.66000E-01   1046.01
   0.68000E-01   1077.71
   0.70000E-01   1109.41
   0.72000E-01   1141.10
   0.74000E-01   1172.80
   0.76000E-01   1204.50
   0.78000E-01   1236.20
   0.80000E-01   1267.89
   0.82000E-01   1299.59
   0.84000E-01   1331.29
   0.86000E-01   1362.99
   0.88000E-01   1394.68
   0.90000E-01   1426.38
   0.92000E-01   1458.08
   0.94000E-01   1489.78
   0.96000E-01   1521.47
   0.98000E-01   1553.17
   0.10000       1584.87
   0.10200       1616.56
   0.10400       1648.26
   0.10600       1679.96
   0.10800       1711.66
   0.11000       1743.35
   0.11200       1775.05
   0.11400       1806.75
   0.11600       1838.45
   0.11800       1870.14
   0.12000       1901.84
   0.12200       1933.54
   0.12400       1965.24
   0.12600       1996.93
   0.12800       2028.63
   0.13000       2060.33
   0.13200       2092.02
   0.13400       2123.72
   0.13600       2155.42
   0.13800       2187.12
   0.14000       2218.81
   0.14200       2250.51
   0.14400       2282.21
   0.14600       2313.91
   0.14800       2345.60
   0.15000       2377.30
   0.15200       2409.00
   0.15400       2440.62
   0.15600       2472.16
   0.15800       2503.69
   0.16000       2535.23
   0.16200       2566.77
   0.16400       2598.31
   0.16600       2629.85
   0.16800       2661.38
   0.17000       2692.92
   0.17200       2724.46
   0.17400       2756.00
   0.17600       2787.53
   0.17800       2819.07
   0.18000       2850.61
   0.18200       2882.14
   0.18400       2913.68
   0.18600       2945.22
   0.18800       2976.75
   0.19000       3008.24
   0.19200       3039.63
   0.19400       3070.99
   0.19600       3102.34
   0.19800       3133.69
   0.20000       3165.05
   0.20200       3196.40
   0.20400       3227.76
   0.20600       3259.11
   0.20800       3290.46
   0.21000       3321.82
   0.21200       3353.17
   0.21400       3384.52
   0.21600       3415.67
   0.21800       3446.69
   0.22000       3477.72
   0.22200       3508.75
   0.22400       3539.78
   0.22600       3570.81
   0.22800       3601.84
   0.23000       3632.87
   0.23200       3663.90
   0.23400       3694.92
   0.23600       3725.92
   0.23800       3756.75
   0.24000       3787.51
   0.24200       3818.27
   0.24400       3849.04
   0.24600       3879.80
   0.24800       3910.56
   0.25000       3941.32
   0.25200       3972.08
   0.25400       4002.68
   0.25600       4033.01
   0.25800       4063.34
   0.26000       4093.68
   0.26200       4124.01
   0.26400       4154.35
   0.26600       4184.68
   0.26800       4215.02
   0.27000       4245.19
   0.27200       4275.19
   0.27400       4305.19
   0.27600       4335.19
   0.27800       4365.19
   0.28000       4395.19
   0.28200       4425.17
   0.28400       4454.64
   0.28600       4484.11
   0.28800       4513.59
   0.29000       4543.06
   0.29200       4572.54
   0.29400       4602.01
   0.29600       4631.16
   0.29800       4660.23
   0.30000       4689.31
   0.30200       4718.39
   0.30400       4747.47
   0.30600       4776.12
   0.30800       4804.56
   0.31000       4833.01
   0.31200       4861.46
   0.31400       4889.92
   0.31600       4918.09
   0.31800       4946.06
   0.32000       4974.05
   0.32200       5002.04
   0.32400       5029.79
   0.32600       5057.01
   0.32800       5084.26
   0.33000       5111.52
   0.33200       5138.74
   0.33400       5165.43
   0.33600       5192.15
   0.33800       5218.88
   0.34000       5245.19
   0.34200       5271.02
   0.34400       5296.89
   0.34600       5322.78
   0.34800       5348.09
   0.35000       5373.35
   0.35200       5398.63
   0.35400       5423.10
   0.35600       5447.36
   0.35800       5471.68
   0.36000       5495.48
   0.36200       5519.07
   0.36400       5542.69
   0.36600       5565.13
   0.36800       5587.64
   0.37000       5609.92
   0.37200       5631.61
   0.37400       5653.38
   0.37600       5673.83
   0.37800       5694.34
   0.38000       5714.31
   0.38200       5733.93
   0.38400       5752.82
   0.38600       5771.00
   0.38800       5788.84
   0.39000       5806.11
   0.39200       5822.43
   0.39400       5838.15
   0.39600       5853.06
   0.39800       5867.59
   0.40000       5880.45
   0.40200       5892.93
   0.40400       5904.80
   0.40600       5914.60
   0.40800       5923.94
   0.41000       5932.28
   0.41200       5938.79
   0.41400       5944.23
   0.41600       5948.01
   0.41800       5950.33
   0.42000       5951.02
   0.42200       5949.61
   0.42400       5946.48
   0.42600       5940.75
   0.42800       5932.92
   0.43000       5922.29
   0.43200       5908.92
   0.43400       5892.82
   0.43600       5872.41
   0.43800       5848.66
   0.44000       5821.69
   0.44200       5788.10
   0.44400       5750.17
   0.44600       5705.94
   0.44800       5656.12
   0.45000       5597.60
   0.45200       5530.68
   0.45400       5452.88
   0.45600       5360.28
   0.45800       5245.98
   0.46000       5104.84
   0.46145       4629.87

File: 0.25ux.txt
	0		0
   0.20000E-02  0.100000E-005
   0.40000E-02  0.200000E-005
   0.60000E-02  0.300000E-005
   0.80000E-02  0.400000E-005
   0.10000E-01  0.500000E-005
   0.12000E-01  0.600000E-005
   0.14000E-01  0.700000E-005
   0.16000E-01  0.800000E-005
   0.18000E-01  0.900000E-005
   0.20000E-01  0.100000E-004
   0.22000E-01  0.110000E-004
   0.24000E-01  0.120000E-004
   0.26000E-01  0.130000E-004
   0.28000E-01  0.140000E-004
   0.30000E-01  0.150000E-004
   0.32000E-01  0.160000E-004
   0.34000E-01  0.170000E-004
   0.36000E-01  0.180000E-004
   0.38000E-01  0.190000E-004
   0.40000E-01  0.200000E-004
   0.42000E-01  0.210000E-004
   0.44000E-01  0.220000E-004
   0.46000E-01  0.230000E-004
   0.48000E-01  0.240000E-004
   0.50000E-01  0.250000E-004
   0.52000E-01  0.260000E-004
   0.54000E-01  0.270000E-004
   0.56000E-01  0.280000E-004
   0.58000E-01  0.290000E-004
   0.60000E-01  0.300000E-004
   0.62000E-01  0.310000E-004
   0.64000E-01  0.320000E-004
   0.66000E-01  0.330000E-004
   0.68000E-01  0.340000E-004
   0.70000E-01  0.350000E-004
   0.72000E-01  0.360000E-004
   0.74000E-01  0.370000E-004
   0.76000E-01  0.380000E-004
   0.78000E-01  0.390000E-004
   0.80000E-01  0.400000E-004
   0.82000E-01  0.410000E-004
   0.84000E-01  0.420000E-004
   0.86000E-01  0.430000E-004
   0.88000E-01  0.440000E-004
   0.90000E-01  0.450000E-004
   0.92000E-01  0.460000E-004
   0.94000E-01  0.470000E-004
   0.96000E-01  0.480000E-004
   0.98000E-01  0.490000E-004
   0.10000      0.500000E-004
   0.10200      0.510000E-004
   0.10400      0.520000E-004
   0.10600      0.530000E-004
   0.10800      0.540000E-004
   0.11000      0.550000E-004
   0.11200      0.560000E-004
   0.11400      0.570000E-004
   0.11600      0.580000E-004
   0.11800      0.590000E-004
   0.12000      0.600000E-004
   0.12200      0.610000E-004
   0.12400      0.620000E-004
   0.12600      0.630000E-004
   0.12800      0.640000E-004
   0.13000      0.650000E-004
   0.13200      0.660000E-004
   0.13400      0.670000E-004
   0.13600      0.680000E-004
   0.13800      0.690000E-004
   0.14000      0.700000E-004
   0.14200      0.710000E-004
   0.14400      0.720000E-004
   0.14600      0.730000E-004
   0.14800      0.740000E-004
   0.15000      0.750000E-004
   0.15200      0.760000E-004
   0.15400      0.770000E-004
   0.15600      0.780000E-004
   0.15800      0.790000E-004
   0.16000      0.800000E-004
   0.16200      0.810000E-004
   0.16400      0.820000E-004
   0.16600      0.830000E-004
   0.16800      0.840000E-004
   0.17000      0.850000E-004
   0.17200      0.860000E-004
   0.17400      0.870000E-004
   0.17600      0.880000E-004
   0.17800      0.890000E-004
   0.18000      0.900000E-004
   0.18200      0.910000E-004
   0.18400      0.920000E-004
   0.18600      0.930000E-004
   0.18800      0.940000E-004
   0.19000      0.950000E-004
   0.19200      0.960000E-004
   0.19400      0.970000E-004
   0.19600      0.980000E-004
   0.19800      0.990000E-004
   0.20000      0.100000E-003
   0.20200      0.101000E-003
   0.20400      0.102000E-003
   0.20600      0.103000E-003
   0.20800      0.104000E-003
   0.21000      0.105000E-003
   0.21200      0.106000E-003
   0.21400      0.107000E-003
   0.21600      0.108000E-003
   0.21800      0.109000E-003
   0.22000      0.110000E-003
   0.22200      0.111000E-003
   0.22400      0.112000E-003
   0.22600      0.113000E-003
   0.22800      0.114000E-003
   0.23000      0.115000E-003
   0.23200      0.116000E-003
   0.23400      0.117000E-003
   0.23600      0.118000E-003
   0.23800      0.119000E-003
   0.24000      0.120000E-003
   0.24200      0.121000E-003
   0.24400      0.122000E-003
   0.24600      0.123000E-003
   0.24800      0.124000E-003
   0.25000      0.125000E-003
   0.25200      0.126000E-003
   0.25400      0.127000E-003
   0.25600      0.128000E-003
   0.25800      0.129000E-003
   0.26000      0.130000E-003
   0.26200      0.131000E-003
   0.26400      0.132000E-003
   0.26600      0.133000E-003
   0.26800      0.134000E-003
   0.27000      0.135000E-003
   0.27200      0.136000E-003
   0.27400      0.137000E-003
   0.27600      0.138000E-003
   0.27800      0.139000E-003
   0.28000      0.140000E-003
   0.28200      0.141000E-003
   0.28400      0.142000E-003
   0.28600      0.143000E-003
   0.28800      0.144000E-003
   0.29000      0.145000E-003
   0.29200      0.146000E-003
   0.29400      0.147000E-003
   0.29600      0.148000E-003
   0.29800      0.149000E-003
   0.30000      0.150000E-003
   0.30200      0.151000E-003
   0.30400      0.152000E-003
   0.30600      0.153000E-003
   0.30800      0.154000E-003
   0.31000      0.155000E-003
   0.31200      0.156000E-003
   0.31400      0.157000E-003
   0.31600      0.158000E-003
   0.31800      0.159000E-003
   0.32000      0.160000E-003
   0.32200      0.161000E-003
   0.32400      0.162000E-003
   0.32600      0.163000E-003
   0.32800      0.164000E-003
   0.33000      0.165000E-003
   0.33200      0.166000E-003
   0.33400      0.167000E-003
   0.33600      0.168000E-003
   0.33800      0.169000E-003
   0.34000      0.170000E-003
   0.34200      0.171000E-003
   0.34400      0.172000E-003
   0.34600      0.173000E-003
   0.34800      0.174000E-003
   0.35000      0.175000E-003
   0.35200      0.176000E-003
   0.35400      0.177000E-003
   0.35600      0.178000E-003
   0.35800      0.179000E-003
   0.36000      0.180000E-003
   0.36200      0.181000E-003
   0.36400      0.182000E-003
   0.36600      0.183000E-003
   0.36800      0.184000E-003
   0.37000      0.185000E-003
   0.37200      0.186000E-003
   0.37400      0.187000E-003
   0.37600      0.188000E-003
   0.37800      0.189000E-003
   0.38000      0.190000E-003
   0.38200      0.191000E-003
   0.38400      0.192000E-003
   0.38600      0.193000E-003
   0.38800      0.194000E-003
   0.39000      0.195000E-003
   0.39200      0.196000E-003
   0.39400      0.197000E-003
   0.39600      0.198000E-003
   0.39800      0.199000E-003
   0.40000      0.200000E-003
   0.40200      0.201000E-003
   0.40400      0.202000E-003
   0.40600      0.203000E-003
   0.40800      0.204000E-003
   0.41000      0.205000E-003
   0.41200      0.206000E-003
   0.41400      0.207000E-003
   0.41600      0.208000E-003
   0.41800      0.209000E-003
   0.42000      0.210000E-003
   0.42200      0.211000E-003
   0.42400      0.212000E-003
   0.42600      0.213000E-003
   0.42800      0.214000E-003
   0.43000      0.215000E-003
   0.43200      0.216000E-003
   0.43400      0.217000E-003
   0.43600      0.218000E-003
   0.43800      0.219000E-003
   0.44000      0.220000E-003
   0.44200      0.221000E-003
   0.44400      0.222000E-003
   0.44600      0.223000E-003
   0.44800      0.224000E-003
   0.45000      0.225000E-003
   0.45200      0.226000E-003
   0.45400      0.227000E-003
   0.45600      0.228000E-003
   0.45800      0.229000E-003
   0.46000      0.230000E-003
   0.46145      0.230725E-003

File: 1fx.txt
	0	   0
   0.20000E-02   31.9686
   0.40000E-02   63.9372
   0.60000E-02   95.9058
   0.80000E-02   127.874
   0.10000E-01   159.843
   0.12000E-01   191.812
   0.14000E-01   223.780
   0.16000E-01   255.749
   0.18000E-01   287.717
   0.20000E-01   319.686
   0.22000E-01   351.654
   0.24000E-01   383.623
   0.26000E-01   415.592
   0.28000E-01   447.560
   0.30000E-01   479.529
   0.32000E-01   511.497
   0.34000E-01   543.466
   0.36000E-01   575.435
   0.38000E-01   607.403
   0.40000E-01   639.372
   0.42000E-01   671.340
   0.44000E-01   703.309
   0.46000E-01   735.278
   0.48000E-01   767.246
   0.50000E-01   799.215
   0.52000E-01   831.183
   0.54000E-01   863.152
   0.56000E-01   895.120
   0.58000E-01   927.089
   0.60000E-01   959.058
   0.62000E-01   991.026
   0.64000E-01   1022.99
   0.66000E-01   1054.96
   0.68000E-01   1086.93
   0.70000E-01   1118.90
   0.72000E-01   1150.87
   0.74000E-01   1182.84
   0.76000E-01   1214.81
   0.78000E-01   1246.77
   0.80000E-01   1278.74
   0.82000E-01   1310.71
   0.84000E-01   1342.68
   0.86000E-01   1374.65
   0.88000E-01   1406.62
   0.90000E-01   1438.59
   0.92000E-01   1470.56
   0.94000E-01   1502.52
   0.96000E-01   1534.49
   0.98000E-01   1566.46
   0.10000       1598.43
   0.10200       1630.40
   0.10400       1662.37
   0.10600       1694.34
   0.10800       1726.30
   0.11000       1758.27
   0.11200       1790.24
   0.11400       1822.21
   0.11600       1854.18
   0.11800       1886.15
   0.12000       1918.12
   0.12200       1950.08
   0.12400       1982.05
   0.12600       2014.02
   0.12800       2045.99
   0.13000       2077.96
   0.13200       2109.93
   0.13400       2141.90
   0.13600       2173.86
   0.13800       2205.83
   0.14000       2237.80
   0.14200       2269.77
   0.14400       2301.74
   0.14600       2333.71
   0.14800       2365.68
   0.15000       2397.64
   0.15200       2429.61
   0.15400       2461.58
   0.15600       2493.55
   0.15800       2525.52
   0.16000       2557.49
   0.16200       2589.46
   0.16400       2621.42
   0.16600       2653.39
   0.16800       2685.36
   0.17000       2717.33
   0.17200       2749.30
   0.17400       2781.27
   0.17600       2813.24
   0.17800       2845.20
   0.18000       2877.17
   0.18200       2909.14
   0.18400       2941.11
   0.18600       2973.08
   0.18800       3005.05
   0.19000       3037.02
   0.19200       3068.60
   0.19400       3100.12
   0.19600       3131.64
   0.19800       3163.15
   0.20000       3194.67
   0.20200       3225.80
   0.20400       3256.45
   0.20600       3287.13
   0.20800       3317.79
   0.21000       3348.46
   0.21200       3379.13
   0.21400       3409.80
   0.21600       3440.47
   0.21800       3471.14
   0.22000       3501.81
   0.22200       3532.48
   0.22400       3563.15
   0.22600       3593.82
   0.22800       3624.49
   0.23000       3655.16
   0.23200       3685.83
   0.23400       3716.50
   0.23600       3747.17
   0.23800       3777.84
   0.24000       3808.51
   0.24200       3839.18
   0.24400       3869.85
   0.24600       3900.52
   0.24800       3931.19
   0.25000       3961.86
   0.25200       3992.53
   0.25400       4023.20
   0.25600       4053.87
   0.25800       4084.54
   0.26000       4115.21
   0.26200       4145.89
   0.26400       4176.56
   0.26600       4207.23
   0.26800       4237.90
   0.27000       4268.57
   0.27200       4299.24
   0.27400       4329.92
   0.27600       4360.27
   0.27800       4390.41
   0.28000       4420.47
   0.28200       4450.52
   0.28400       4480.58
   0.28600       4510.64
   0.28800       4540.70
   0.29000       4570.73
   0.29200       4600.52
   0.29400       4630.31
   0.29600       4660.10
   0.29800       4689.89
   0.30000       4719.52
   0.30200       4748.72
   0.30400       4777.94
   0.30600       4807.16
   0.30800       4836.37
   0.31000       4865.59
   0.31200       4894.81
   0.31400       4924.03
   0.31600       4953.24
   0.31800       4982.46
   0.32000       5011.65
   0.32200       5040.82
   0.32400       5069.99
   0.32600       5099.13
   0.32800       5128.27
   0.33000       5157.41
   0.33200       5186.55
   0.33400       5215.69
   0.33600       5244.82
   0.33800       5273.89
   0.34000       5302.44
   0.34200       5330.53
   0.34400       5357.64
   0.34600       5384.78
   0.34800       5411.93
   0.35000       5439.09
   0.35200       5466.24
   0.35400       5493.40
   0.35600       5520.54
   0.35800       5547.68
   0.36000       5574.81
   0.36200       5601.95
   0.36400       5629.08
   0.36600       5656.15
   0.36800       5683.23
   0.37000       5709.64
   0.37200       5736.04
   0.37400       5762.45
   0.37600       5788.62
   0.37800       5813.83
   0.38000       5839.11
   0.38200       5864.40
   0.38400       5889.65
   0.38600       5914.78
   0.38800       5939.95
   0.39000       5965.05
   0.39200       5989.92
   0.39400       6014.12
   0.39600       6036.44
   0.39800       6058.49
   0.40000       6080.55
   0.40200       6102.58
   0.40400       6124.60
   0.40600       6146.64
   0.40800       6168.70
   0.41000       6190.77
   0.41200       6212.85
   0.41400       6234.37
   0.41600       6255.49
   0.41800       6276.25
   0.42000       6295.87
   0.42200       6315.57
   0.42400       6335.16
   0.42600       6354.73
   0.42800       6373.97
   0.43000       6393.19
   0.43200       6410.50
   0.43400       6425.67
   0.43600       6441.03
   0.43800       6456.46
   0.44000       6471.96
   0.44200       6487.52
   0.44400       6502.91
   0.44600       6517.25
   0.44800       6529.77
   0.45000       6542.26
   0.45200       6554.83
   0.45400       6567.26
   0.45600       6578.80
   0.45800       6585.42
   0.46000       6592.50
   0.46200       6599.71
   0.46400       6607.02
   0.46600       6613.78
   0.46800       6617.78
   0.47000       6621.25
   0.47200       6625.07
   0.47400       6628.42
   0.47600       6624.97
   0.47800       6622.05
   0.48000       6619.61
   0.48200       6616.42
   0.48400       6608.84
   0.48600       6601.87
   0.48800       6594.66
   0.49000       6579.14
   0.49200       6564.54
   0.49400       6549.66
   0.49600       6529.35
   0.49800       6510.10
   0.50000       6484.67
   0.50200       6454.92
   0.50400       6424.24
   0.50600       6388.38
   0.50800       6347.49
   0.51000       6297.23
   0.51200       6238.69
   0.51345       6025.97
   0.51354       5976.30